Participant,Trial,Group,Block,BlockPresentation,Correct,CorrectKey,Response,RT,DotDifference,DotNumberRight,DotNumberLeft,Confidence,ConfidenceRT,Date,TimeStamp,TimeStamp+1,RTConf+1,expName
1,1,Monolingual,1,1,0.0,right,left,4.408615959999992,3.0,53.0,50.0,0.6,0.973,2014_Nov_12_1312,211.63232786400002,,,MetaDots
1,2,Monolingual,1,2,1.0,right,right,2.6733702959999865,4.0,54.0,50.0,0.5,0.456,2014_Nov_12_1312,215.27869816,211.63232786400002,0.973,MetaDots
1,3,Monolingual,1,3,0.0,right,left,3.2917769159999923,4.0,50.0,46.0,0.58,0.8420000000000001,2014_Nov_12_1312,219.026475076,215.27869816,0.456,MetaDots
1,4,Monolingual,1,4,0.0,right,left,2.777240569999988,5.0,55.0,50.0,0.54,1.036,2014_Nov_12_1312,222.64571564599999,219.026475076,0.8420000000000001,MetaDots
1,5,Monolingual,1,5,1.0,left,left,2.860096645,6.0,50.0,56.0,0.58,0.8759999999999999,2014_Nov_12_1312,226.54181229099999,222.64571564599999,1.036,MetaDots
1,6,Monolingual,1,6,1.0,left,left,1.9476064040000032,6.0,44.0,50.0,0.58,1.187,2014_Nov_12_1312,229.365418695,226.54181229099999,0.8759999999999999,MetaDots
1,7,Monolingual,1,7,1.0,left,left,3.3835104509999896,5.0,50.0,55.0,0.62,0.9059999999999999,2014_Nov_12_1312,233.93592914599998,229.365418695,1.187,MetaDots
1,8,Monolingual,1,8,1.0,right,right,2.8422305080000347,5.0,50.0,45.0,0.5,0.547,2014_Nov_12_1312,237.684159654,233.93592914599998,0.9059999999999999,MetaDots
1,9,Monolingual,1,9,0.0,right,left,3.099286704999994,4.0,50.0,46.0,0.5,0.7390000000000001,2014_Nov_12_1312,241.330446359,237.684159654,0.547,MetaDots
1,10,Monolingual,1,10,1.0,left,left,4.132374783999983,5.0,45.0,50.0,0.5,0.47,2014_Nov_12_1312,246.201821143,241.330446359,0.7390000000000001,MetaDots
1,11,Monolingual,1,11,1.0,right,right,1.7449053570000206,5.0,50.0,45.0,0.5,1.392,2014_Nov_12_1312,248.4167265,246.201821143,0.47,MetaDots
1,12,Monolingual,1,12,1.0,left,left,3.2060625340000075,4.0,46.0,50.0,0.62,0.795,2014_Nov_12_1312,253.01478903400002,248.4167265,1.392,MetaDots
1,13,Monolingual,1,13,1.0,left,left,5.309468693999962,4.0,46.0,50.0,0.54,0.905,2014_Nov_12_1312,259.119257728,253.01478903400002,0.795,MetaDots
1,14,Monolingual,1,14,1.0,left,left,3.2280625860000507,3.0,50.0,53.0,0.5,0.737,2014_Nov_12_1312,263.25232031400003,259.119257728,0.905,MetaDots
1,15,Monolingual,1,15,1.0,right,right,3.907825620000006,3.0,53.0,50.0,0.6,1.09,2014_Nov_12_1312,267.89714593400004,263.25232031400003,0.737,MetaDots
1,16,Monolingual,1,16,1.0,right,right,2.9858884419999505,2.0,50.0,48.0,0.6,0.907,2014_Nov_12_1312,271.973034376,267.89714593400004,1.09,MetaDots
1,17,Monolingual,1,17,0.0,right,left,2.894913182000021,2.0,50.0,48.0,0.6,0.987,2014_Nov_12_1312,275.774947558,271.973034376,0.907,MetaDots
1,18,Monolingual,1,18,1.0,left,left,1.9302522439999965,3.0,47.0,50.0,0.5,0.439,2014_Nov_12_1312,278.692199802,275.774947558,0.987,MetaDots
1,19,Monolingual,1,19,1.0,right,right,5.087309652999998,3.0,50.0,47.0,0.5,0.907,2014_Nov_12_1312,284.218509455,278.692199802,0.439,MetaDots
1,20,Monolingual,1,20,1.0,right,right,2.025953301999987,2.0,50.0,48.0,0.54,0.7979999999999999,2014_Nov_12_1312,287.151462757,284.218509455,0.907,MetaDots
1,21,Monolingual,1,21,1.0,left,left,2.5871360859999886,2.0,48.0,50.0,0.58,1.018,2014_Nov_12_1312,290.536598843,287.151462757,0.7979999999999999,MetaDots
1,22,Monolingual,1,22,1.0,left,left,3.084668846000029,1.0,50.0,51.0,0.5,0.441,2014_Nov_12_1312,294.639267689,290.536598843,1.018,MetaDots
1,23,Monolingual,1,23,0.0,left,right,5.066122845000026,1.0,50.0,51.0,0.5,0.7659999999999999,2014_Nov_12_1312,300.14639053400003,294.639267689,0.441,MetaDots
1,24,Monolingual,1,24,0.0,right,left,4.225700278999986,2.0,52.0,50.0,0.5,1.224,2014_Nov_12_1312,305.138090813,300.14639053400003,0.7659999999999999,MetaDots
1,25,Monolingual,1,25,1.0,left,left,3.4206997939999617,3.0,50.0,53.0,0.58,1.094,2014_Nov_12_1312,309.782790607,305.138090813,1.224,MetaDots
1,26,Monolingual,2,1,1.0,right,right,6.063299178606995,3.0,50.0,47.0,0.5,0.628,2014_Nov_12_1312,317.738811545,309.782790607,1.094,MetaDots
1,27,Monolingual,2,2,0.0,right,left,1.9771475430000436,2.0,50.0,48.0,0.5,0.8640000000000001,2014_Nov_12_1312,320.343959088,317.738811545,0.628,MetaDots
1,28,Monolingual,2,3,1.0,left,left,3.566151237999951,3.0,50.0,53.0,0.6,0.672,2014_Nov_12_1312,324.77411032599997,320.343959088,0.8640000000000001,MetaDots
1,29,Monolingual,2,4,1.0,left,left,3.5558144699999983,3.0,50.0,53.0,0.42,0.9670000000000001,2014_Nov_12_1312,329.00192479599997,324.77411032599997,0.672,MetaDots
1,30,Monolingual,2,5,1.0,right,right,4.5553522730000235,2.0,52.0,50.0,0.5,0.47,2014_Nov_12_1312,334.524277069,329.00192479599997,0.9670000000000001,MetaDots
1,31,Monolingual,2,6,1.0,right,right,3.1959759390000206,2.0,52.0,50.0,0.4,0.716,2014_Nov_12_1312,338.190253008,334.524277069,0.47,MetaDots
1,32,Monolingual,2,7,0.0,left,right,4.202248738999978,1.0,50.0,51.0,0.5,0.9229999999999999,2014_Nov_12_1312,343.108501747,338.190253008,0.716,MetaDots
1,33,Monolingual,2,8,1.0,left,left,5.441351807999981,2.0,48.0,50.0,0.5,1.157,2014_Nov_12_1312,349.472853555,343.108501747,0.9229999999999999,MetaDots
1,34,Monolingual,2,9,1.0,right,right,5.656111316000004,2.0,50.0,48.0,0.58,0.922,2014_Nov_12_1312,356.285964871,349.472853555,1.157,MetaDots
1,35,Monolingual,2,10,0.0,right,left,1.6877256970000443,1.0,51.0,50.0,0.5,0.5479999999999999,2014_Nov_12_1312,358.895690568,356.285964871,0.922,MetaDots
1,36,Monolingual,2,11,1.0,left,left,8.062768827999948,2.0,50.0,52.0,0.5,0.595,2014_Nov_12_1312,367.50645939599997,358.895690568,0.5479999999999999,MetaDots
1,37,Monolingual,2,12,0.0,right,left,4.127561426000027,2.0,50.0,48.0,0.34,0.955,2014_Nov_12_1312,372.229020822,367.50645939599997,0.595,MetaDots
1,38,Monolingual,2,13,0.0,right,left,6.72450098700004,3.0,53.0,50.0,0.5,0.609,2014_Nov_12_1312,379.90852180900004,372.229020822,0.955,MetaDots
1,39,Monolingual,2,14,1.0,right,right,1.6331881879999433,4.0,54.0,50.0,0.5,0.735,2014_Nov_12_1312,382.150709997,379.90852180900004,0.609,MetaDots
1,40,Monolingual,2,15,1.0,right,right,4.370264569999974,4.0,54.0,50.0,0.4,0.846,2014_Nov_12_1312,387.25597456699995,382.150709997,0.735,MetaDots
1,41,Monolingual,2,16,0.0,right,left,5.358722636000099,3.0,53.0,50.0,0.5,0.45399999999999996,2014_Nov_12_1312,393.46069720300005,387.25597456699995,0.846,MetaDots
1,42,Monolingual,2,17,0.0,right,left,5.427149668999911,4.0,54.0,50.0,0.5,0.47,2014_Nov_12_1312,399.34184687199996,393.46069720300005,0.45399999999999996,MetaDots
1,43,Monolingual,2,18,0.0,right,left,3.538981208000023,5.0,55.0,50.0,0.5,0.517,2014_Nov_12_1312,403.35082808,399.34184687199996,0.47,MetaDots
1,44,Monolingual,2,19,1.0,left,left,9.440064948000039,6.0,50.0,56.0,0.4,4.811,2014_Nov_12_1312,413.307893028,403.35082808,0.517,MetaDots
1,45,Monolingual,2,20,1.0,left,left,13.358528123999953,6.0,50.0,56.0,0.26,1.892,2014_Nov_12_1312,431.477421152,413.307893028,4.811,MetaDots
1,46,Monolingual,2,21,1.0,left,left,5.3151797749999865,5.0,50.0,55.0,0.58,0.779,2014_Nov_12_1312,438.68460092699996,431.477421152,1.892,MetaDots
1,47,Monolingual,2,22,1.0,right,right,4.373336504999994,5.0,50.0,45.0,0.5,0.41100000000000003,2014_Nov_12_1312,443.83693743199996,438.68460092699996,0.779,MetaDots
1,48,Monolingual,2,23,1.0,right,right,2.271936143000063,4.0,50.0,46.0,0.58,0.7040000000000001,2014_Nov_12_1312,446.519873575,443.83693743199996,0.41100000000000003,MetaDots
1,49,Monolingual,2,24,1.0,left,left,8.277589269999972,4.0,50.0,54.0,0.42,0.912,2014_Nov_12_1312,455.501462845,446.519873575,0.7040000000000001,MetaDots
1,50,Monolingual,2,25,0.0,right,left,2.129968914999984,3.0,50.0,47.0,0.5,0.76,2014_Nov_12_1312,458.54343176,455.501462845,0.912,MetaDots
1,51,Monolingual,3,1,0.0,right,left,4.293132292220007,4.0,50.0,46.0,0.4,1.3630000000000002,2014_Nov_12_1312,464.689853531,458.54343176,0.76,MetaDots
1,52,Monolingual,3,2,1.0,right,right,9.276060470000004,5.0,50.0,45.0,0.6,0.88,2014_Nov_12_1312,475.328914001,464.689853531,1.3630000000000002,MetaDots
1,53,Monolingual,3,3,1.0,right,right,5.157136907000047,5.0,55.0,50.0,0.4,1.675,2014_Nov_12_1312,481.36605090800003,475.328914001,0.88,MetaDots
1,54,Monolingual,3,4,0.0,left,right,7.560165210999981,4.0,50.0,54.0,0.4,0.872,2014_Nov_12_1312,490.601216119,481.36605090800003,1.675,MetaDots
1,55,Monolingual,3,5,1.0,left,left,2.3456845429999618,5.0,50.0,55.0,0.6,1.08,2014_Nov_12_1312,493.818900662,490.601216119,0.872,MetaDots
1,56,Monolingual,3,6,1.0,right,right,4.520366569000016,5.0,50.0,45.0,0.5,0.632,2014_Nov_12_1312,499.419267231,493.818900662,1.08,MetaDots
1,57,Monolingual,3,7,1.0,left,left,6.824599477000055,4.0,50.0,54.0,0.6,0.721,2014_Nov_12_1312,506.87586670800005,499.419267231,0.632,MetaDots
1,58,Monolingual,3,8,0.0,left,right,8.716930934999997,4.0,50.0,54.0,0.4,0.763,2014_Nov_12_1312,516.313797643,506.87586670800005,0.721,MetaDots
1,59,Monolingual,3,9,0.0,right,left,5.992144814999994,5.0,50.0,45.0,0.62,0.925,2014_Nov_12_1312,523.068942458,516.313797643,0.763,MetaDots
1,60,Monolingual,3,10,1.0,left,left,1.570512035000047,6.0,44.0,50.0,0.54,0.8909999999999999,2014_Nov_12_1312,525.5644544930001,523.068942458,0.925,MetaDots
1,61,Monolingual,3,11,1.0,right,right,6.343474043999853,6.0,50.0,44.0,0.56,0.878,2014_Nov_12_1312,532.7989285369999,525.5644544930001,0.8909999999999999,MetaDots
1,62,Monolingual,3,12,1.0,right,right,3.8799829549999885,5.0,50.0,45.0,0.6,1.107,2014_Nov_12_1312,537.5569114919999,532.7989285369999,0.878,MetaDots
1,63,Monolingual,3,13,1.0,left,left,4.134589851000071,5.0,50.0,55.0,0.36,1.125,2014_Nov_12_1312,542.798501343,537.5569114919999,1.107,MetaDots
1,64,Monolingual,3,14,0.0,left,right,4.869330320000017,4.0,46.0,50.0,0.4,0.706,2014_Nov_12_1312,548.792831663,542.798501343,1.125,MetaDots
1,65,Monolingual,3,15,1.0,right,right,4.192388802999989,5.0,50.0,45.0,0.58,0.907,2014_Nov_12_1312,553.691220466,548.792831663,0.706,MetaDots
1,66,Monolingual,3,16,1.0,left,left,4.221377082000043,5.0,50.0,55.0,0.46,0.938,2014_Nov_12_1312,558.819597548,553.691220466,0.907,MetaDots
1,67,Monolingual,3,17,1.0,right,right,4.335488671999985,4.0,50.0,46.0,0.54,0.6409999999999999,2014_Nov_12_1312,564.09308622,558.819597548,0.938,MetaDots
1,68,Monolingual,3,18,0.0,left,right,4.677897582999966,4.0,46.0,50.0,0.62,0.907,2014_Nov_12_1312,569.411983803,564.09308622,0.6409999999999999,MetaDots
1,69,Monolingual,3,19,1.0,right,right,2.7745128939999795,5.0,55.0,50.0,0.56,1.062,2014_Nov_12_1312,573.093496697,569.411983803,0.907,MetaDots
1,70,Monolingual,3,20,0.0,left,right,3.855957489999935,5.0,50.0,55.0,0.62,0.973,2014_Nov_12_1312,578.0114541869999,573.093496697,1.062,MetaDots
1,71,Monolingual,3,21,1.0,left,left,4.467407432000143,6.0,50.0,56.0,0.38,1.109,2014_Nov_12_1312,583.451861619,578.0114541869999,0.973,MetaDots
1,72,Monolingual,3,22,1.0,right,right,4.276849690999976,6.0,56.0,50.0,0.42,0.532,2014_Nov_12_1312,588.83771131,583.451861619,1.109,MetaDots
1,73,Monolingual,3,23,1.0,left,left,5.084141537999965,5.0,50.0,55.0,0.5,0.675,2014_Nov_12_1312,594.453852848,588.83771131,0.532,MetaDots
1,74,Monolingual,3,24,0.0,right,left,4.06324180500003,5.0,50.0,45.0,0.56,0.688,2014_Nov_12_1312,599.192094653,594.453852848,0.675,MetaDots
1,75,Monolingual,3,25,0.0,right,left,2.4361425309999616,6.0,50.0,44.0,0.58,0.9259999999999999,2014_Nov_12_1312,602.316237184,599.192094653,0.688,MetaDots
1,76,Monolingual,4,1,1.0,left,left,4.453041851710996,7.0,43.0,50.0,0.6,0.917,2014_Nov_12_1312,607.869511581,602.316237184,0.9259999999999999,MetaDots
1,77,Monolingual,4,2,0.0,right,left,1.9339072720000858,7.0,57.0,50.0,0.5,0.517,2014_Nov_12_1312,610.7204188530001,607.869511581,0.917,MetaDots
1,78,Monolingual,4,3,1.0,right,right,1.6981992459999975,8.0,50.0,42.0,0.64,1.609,2014_Nov_12_1312,612.9356180990001,610.7204188530001,0.517,MetaDots
1,79,Monolingual,4,4,1.0,right,right,2.7941007039999395,8.0,58.0,50.0,0.5,0.735,2014_Nov_12_1312,617.338718803,612.9356180990001,1.609,MetaDots
1,80,Monolingual,4,5,1.0,left,left,2.5725934199999894,7.0,50.0,57.0,0.56,0.8440000000000001,2014_Nov_12_1312,620.646312223,617.338718803,0.735,MetaDots
1,81,Monolingual,4,6,1.0,left,left,3.941585630000014,7.0,43.0,50.0,0.6,0.909,2014_Nov_12_1312,625.431897853,620.646312223,0.8440000000000001,MetaDots
1,82,Monolingual,4,7,1.0,right,right,5.131367485000047,6.0,56.0,50.0,0.62,0.905,2014_Nov_12_1312,631.472265338,625.431897853,0.909,MetaDots
1,83,Monolingual,4,8,1.0,right,right,3.646193416999922,6.0,56.0,50.0,0.62,1.301,2014_Nov_12_1312,636.023458755,631.472265338,0.905,MetaDots
1,84,Monolingual,4,9,1.0,left,left,6.951158851999979,5.0,50.0,55.0,0.58,0.938,2014_Nov_12_1312,644.275617607,636.023458755,1.301,MetaDots
1,85,Monolingual,4,10,1.0,right,right,3.7460677030000964,5.0,55.0,50.0,0.5,0.456,2014_Nov_12_1312,648.95968531,644.275617607,0.938,MetaDots
1,86,Monolingual,4,11,1.0,right,right,3.3308729349999058,4.0,50.0,46.0,0.42,0.6629999999999999,2014_Nov_12_1312,652.746558245,648.95968531,0.456,MetaDots
1,87,Monolingual,4,12,0.0,left,right,6.751036184999986,4.0,46.0,50.0,0.44,0.815,2014_Nov_12_1312,660.16059443,652.746558245,0.6629999999999999,MetaDots
1,88,Monolingual,4,13,1.0,left,left,3.1276943100000927,5.0,45.0,50.0,0.38,1.361,2014_Nov_12_1312,664.10328874,660.16059443,0.815,MetaDots
1,89,Monolingual,4,14,1.0,right,right,4.956988637999975,5.0,50.0,45.0,0.6,0.583,2014_Nov_12_1312,670.421277378,664.10328874,1.361,MetaDots
1,90,Monolingual,4,15,1.0,right,right,6.5503054409999475,4.0,54.0,50.0,0.58,0.626,2014_Nov_12_1312,677.554582819,670.421277378,0.583,MetaDots
1,91,Monolingual,4,16,1.0,right,right,2.5054589550000848,4.0,54.0,50.0,0.5,0.6409999999999999,2014_Nov_12_1312,680.686041774,677.554582819,0.626,MetaDots
1,92,Monolingual,4,17,0.0,left,right,5.770467297999934,3.0,47.0,50.0,0.42,0.483,2014_Nov_12_1312,687.097509072,680.686041774,0.6409999999999999,MetaDots
1,93,Monolingual,4,18,0.0,right,left,4.01375710300005,4.0,54.0,50.0,0.5,0.737,2014_Nov_12_1312,691.594266175,687.097509072,0.483,MetaDots
1,94,Monolingual,4,19,1.0,left,left,4.863387246999958,5.0,50.0,55.0,0.42,0.86,2014_Nov_12_1312,697.194653422,691.594266175,0.737,MetaDots
1,95,Monolingual,4,20,1.0,right,right,2.58774233499993,5.0,50.0,45.0,0.56,0.846,2014_Nov_12_1312,700.6423957569999,697.194653422,0.86,MetaDots
1,96,Monolingual,4,21,0.0,right,left,1.8641934570000593,4.0,50.0,46.0,0.38,0.7190000000000001,2014_Nov_12_1312,703.352589214,700.6423957569999,0.846,MetaDots
1,97,Monolingual,4,22,1.0,right,right,5.630243807999983,5.0,55.0,50.0,0.58,0.782,2014_Nov_12_1312,709.701833022,703.352589214,0.7190000000000001,MetaDots
1,98,Monolingual,4,23,1.0,left,left,4.5999763410000405,5.0,45.0,50.0,0.58,0.7240000000000001,2014_Nov_12_1312,715.083809363,709.701833022,0.782,MetaDots
1,99,Monolingual,4,24,1.0,right,right,2.4739557119999525,4.0,54.0,50.0,0.6,0.9009999999999999,2014_Nov_12_1312,718.281765075,715.083809363,0.7240000000000001,MetaDots
1,100,Monolingual,4,25,1.0,right,right,4.465270005000047,4.0,54.0,50.0,0.5,0.45299999999999996,2014_Nov_12_1312,723.64803508,718.281765075,0.9009999999999999,MetaDots
1,101,Monolingual,5,1,1.0,left,left,5.416326801122975,3.0,50.0,53.0,0.58,0.862,2014_Nov_12_1312,729.70477807,723.64803508,0.45299999999999996,MetaDots
1,102,Monolingual,5,2,1.0,right,right,5.561169618000088,3.0,53.0,50.0,0.58,0.9890000000000001,2014_Nov_12_1312,736.1279476880001,729.70477807,0.862,MetaDots
1,103,Monolingual,5,3,0.0,left,right,5.723272235999876,2.0,50.0,52.0,0.54,1.0190000000000001,2014_Nov_12_1312,742.8402199239999,736.1279476880001,0.9890000000000001,MetaDots
1,104,Monolingual,5,4,0.0,right,left,3.6722046280000367,3.0,53.0,50.0,0.58,0.955,2014_Nov_12_1312,747.531424552,742.8402199239999,1.0190000000000001,MetaDots
1,105,Monolingual,5,5,0.0,left,right,3.335076235000015,4.0,46.0,50.0,0.58,0.909,2014_Nov_12_1312,751.821500787,747.531424552,0.955,MetaDots
1,106,Monolingual,5,6,1.0,left,left,3.521396291999955,5.0,45.0,50.0,0.4,0.5479999999999999,2014_Nov_12_1312,756.251897079,751.821500787,0.909,MetaDots
1,107,Monolingual,5,7,1.0,left,left,6.444753087999972,5.0,50.0,55.0,0.42,0.7509999999999999,2014_Nov_12_1312,763.2446501669999,756.251897079,0.5479999999999999,MetaDots
1,108,Monolingual,5,8,1.0,right,right,4.381475248000106,4.0,54.0,50.0,0.6,0.875,2014_Nov_12_1312,768.377125415,763.2446501669999,0.7509999999999999,MetaDots
1,109,Monolingual,5,9,0.0,right,left,6.566148312999985,4.0,54.0,50.0,0.5,0.721,2014_Nov_12_1312,775.818273728,768.377125415,0.875,MetaDots
1,110,Monolingual,5,10,1.0,left,left,2.191998335999987,5.0,50.0,55.0,0.5,0.675,2014_Nov_12_1312,778.731272064,775.818273728,0.721,MetaDots
1,111,Monolingual,5,11,1.0,right,right,1.8678505810000388,5.0,55.0,50.0,0.5,0.578,2014_Nov_12_1312,781.274122645,778.731272064,0.675,MetaDots
1,112,Monolingual,5,12,0.0,left,right,5.58392088899993,4.0,50.0,54.0,0.58,0.579,2014_Nov_12_1312,787.436043534,781.274122645,0.578,MetaDots
1,113,Monolingual,5,13,0.0,right,left,3.4030670599999633,5.0,50.0,45.0,0.42,1.088,2014_Nov_12_1312,791.4181105939999,787.436043534,0.579,MetaDots
1,114,Monolingual,5,14,1.0,right,right,2.8078964660000674,6.0,50.0,44.0,0.6,0.7709999999999999,2014_Nov_12_1312,795.31400706,791.4181105939999,1.088,MetaDots
1,115,Monolingual,5,15,1.0,left,left,2.7273875710000803,6.0,50.0,56.0,0.5,0.579,2014_Nov_12_1312,798.8123946310001,795.31400706,0.7709999999999999,MetaDots
1,116,Monolingual,5,16,1.0,right,right,6.514950728999971,5.0,55.0,50.0,0.6,1.02,2014_Nov_12_1312,805.90634536,798.8123946310001,0.579,MetaDots
1,117,Monolingual,5,17,1.0,left,left,1.4954709610000054,5.0,50.0,55.0,0.5,0.409,2014_Nov_12_1312,808.421816321,805.90634536,1.02,MetaDots
1,118,Monolingual,5,18,0.0,right,left,6.049808482999871,4.0,54.0,50.0,0.44,1.172,2014_Nov_12_1312,814.8806248039999,808.421816321,0.409,MetaDots
1,119,Monolingual,5,19,0.0,right,left,5.520289113000016,5.0,50.0,45.0,0.32,1.0290000000000001,2014_Nov_12_1312,821.5729139169999,814.8806248039999,1.172,MetaDots
1,120,Monolingual,5,20,1.0,right,right,6.766701039000164,6.0,56.0,50.0,0.58,1.5430000000000001,2014_Nov_12_1312,829.3686149560001,821.5729139169999,1.0290000000000001,MetaDots
1,121,Monolingual,5,21,1.0,left,left,2.653426874999929,6.0,44.0,50.0,0.4,1.3430000000000002,2014_Nov_12_1312,833.565041831,829.3686149560001,1.5430000000000001,MetaDots
1,122,Monolingual,5,22,1.0,left,left,6.304849420000057,5.0,45.0,50.0,0.5,0.614,2014_Nov_12_1312,841.2128912510001,833.565041831,1.3430000000000002,MetaDots
1,123,Monolingual,5,23,1.0,right,right,5.013677555999867,5.0,55.0,50.0,0.4,0.955,2014_Nov_12_1312,846.840568807,841.2128912510001,0.614,MetaDots
1,124,Monolingual,5,24,1.0,right,right,3.494929783000016,4.0,54.0,50.0,0.62,0.9690000000000001,2014_Nov_12_1312,851.29049859,846.840568807,0.955,MetaDots
1,125,Monolingual,5,25,1.0,left,left,5.890884081000132,4.0,50.0,54.0,0.5,0.609,2014_Nov_12_1312,858.1503826710001,851.29049859,0.9690000000000001,MetaDots
1,126,Monolingual,6,1,1.0,right,right,4.91332279586787,3.0,53.0,50.0,0.5,0.465,2014_Nov_12_1312,864.300989719,858.1503826710001,0.609,MetaDots
1,127,Monolingual,6,2,0.0,right,left,1.796945614999945,3.0,53.0,50.0,0.62,0.9890000000000001,2014_Nov_12_1312,866.5629353339999,864.300989719,0.465,MetaDots
1,128,Monolingual,6,3,1.0,left,left,3.6087954810000484,4.0,50.0,54.0,0.42,1.254,2014_Nov_12_1312,871.160730815,866.5629353339999,0.9890000000000001,MetaDots
1,129,Monolingual,6,4,0.0,left,right,7.169890261999987,4.0,46.0,50.0,0.6,0.878,2014_Nov_12_1312,879.584621077,871.160730815,1.254,MetaDots
1,130,Monolingual,6,5,1.0,right,right,5.740333386000131,5.0,50.0,45.0,0.56,1.3130000000000002,2014_Nov_12_1312,886.2029544630001,879.584621077,0.878,MetaDots
1,131,Monolingual,6,6,1.0,left,left,6.389370644999973,5.0,50.0,55.0,0.6,0.862,2014_Nov_12_1312,893.905325108,886.2029544630001,1.3130000000000002,MetaDots
1,132,Monolingual,6,7,1.0,right,right,4.633145993999927,4.0,50.0,46.0,0.6,2.033,2014_Nov_12_1312,899.400471102,893.905325108,0.862,MetaDots
1,133,Monolingual,6,8,1.0,left,left,8.024998616999953,4.0,46.0,50.0,0.58,0.7509999999999999,2014_Nov_12_1312,909.4584697189999,899.400471102,2.033,MetaDots
1,134,Monolingual,6,9,1.0,left,left,4.634990476000075,3.0,47.0,50.0,0.58,0.797,2014_Nov_12_1312,914.844460195,909.4584697189999,0.7509999999999999,MetaDots
1,135,Monolingual,6,10,1.0,left,left,4.5964894810000745,3.0,50.0,53.0,0.6,0.912,2014_Nov_12_1312,920.2379496760001,914.844460195,0.797,MetaDots
1,136,Monolingual,6,11,1.0,right,right,5.920815948999951,2.0,50.0,48.0,0.5,1.0590000000000002,2014_Nov_12_1312,927.070765625,920.2379496760001,0.912,MetaDots
1,137,Monolingual,6,12,1.0,right,right,9.709456485,2.0,50.0,48.0,0.5,0.7040000000000001,2014_Nov_12_1312,937.83922211,927.070765625,1.0590000000000002,MetaDots
1,138,Monolingual,6,13,0.0,right,left,8.230201448999942,1.0,50.0,49.0,0.5,0.6920000000000001,2014_Nov_12_1312,946.773423559,937.83922211,0.7040000000000001,MetaDots
1,139,Monolingual,6,14,1.0,left,left,6.452628521000072,2.0,50.0,52.0,0.4,0.951,2014_Nov_12_1312,953.91805208,946.773423559,0.6920000000000001,MetaDots
1,140,Monolingual,6,15,0.0,left,right,8.346708986999964,2.0,50.0,52.0,0.6,0.971,2014_Nov_12_1312,963.215761067,953.91805208,0.951,MetaDots
1,141,Monolingual,6,16,0.0,left,right,8.424033718000036,3.0,50.0,53.0,0.62,0.987,2014_Nov_12_1312,972.610794785,963.215761067,0.971,MetaDots
1,142,Monolingual,6,17,1.0,left,left,2.4919068739999037,4.0,46.0,50.0,0.5,0.7829999999999999,2014_Nov_12_1312,976.089701659,972.610794785,0.987,MetaDots
1,143,Monolingual,6,18,0.0,left,right,5.655650258000053,4.0,46.0,50.0,0.5,0.5479999999999999,2014_Nov_12_1312,982.528351917,976.089701659,0.7829999999999999,MetaDots
1,144,Monolingual,6,19,1.0,left,left,11.97891414900005,5.0,45.0,50.0,0.5,0.501,2014_Nov_12_1312,995.0552660660001,982.528351917,0.5479999999999999,MetaDots
1,145,Monolingual,6,20,1.0,right,right,3.601599772999838,5.0,50.0,45.0,0.4,0.677,2014_Nov_12_1312,999.1578658389999,995.0552660660001,0.501,MetaDots
1,146,Monolingual,6,21,0.0,right,left,8.698531901000159,4.0,50.0,46.0,0.42,1.156,2014_Nov_12_1312,1008.53339774,999.1578658389999,0.677,MetaDots
1,147,Monolingual,6,22,0.0,right,left,6.846700439999899,5.0,55.0,50.0,0.4,1.047,2014_Nov_12_1312,1016.53609818,1008.53339774,1.156,MetaDots
1,148,Monolingual,6,23,1.0,right,right,6.721593310000142,6.0,50.0,44.0,0.38,1.083,2014_Nov_12_1312,1024.30469149,1016.53609818,1.047,MetaDots
1,149,Monolingual,6,24,0.0,left,right,4.39550958999993,6.0,44.0,50.0,0.62,0.797,2014_Nov_12_1312,1029.78320108,1024.30469149,1.083,MetaDots
1,150,Monolingual,6,25,1.0,left,left,2.5385933799998637,7.0,50.0,57.0,0.4,0.797,2014_Nov_12_1312,1033.11879446,1029.78320108,0.797,MetaDots
1,151,Monolingual,7,1,1.0,right,right,4.758128353668104,7.0,57.0,50.0,0.5,0.561,2014_Nov_12_1312,1039.5771863,1033.11879446,0.797,MetaDots
1,152,Monolingual,7,2,1.0,right,right,10.889381619999916,6.0,56.0,50.0,0.6,0.847,2014_Nov_12_1312,1051.02756792,1039.5771863,0.561,MetaDots
1,153,Monolingual,7,3,1.0,left,left,10.416081570000168,6.0,50.0,56.0,0.5,0.659,2014_Nov_12_1312,1062.29064949,1051.02756792,0.847,MetaDots
1,154,Monolingual,7,4,0.0,left,right,5.756821079999887,5.0,50.0,55.0,0.62,1.047,2014_Nov_12_1312,1068.70647057,1062.29064949,0.659,MetaDots
1,155,Monolingual,7,5,1.0,right,right,5.531869570000052,6.0,56.0,50.0,0.5,0.61,2014_Nov_12_1312,1075.28534014,1068.70647057,1.047,MetaDots
1,156,Monolingual,7,6,1.0,left,left,5.707935840000018,6.0,50.0,56.0,0.42,0.922,2014_Nov_12_1312,1081.60327598,1075.28534014,0.61,MetaDots
1,157,Monolingual,7,7,1.0,right,right,9.249154189999924,5.0,50.0,45.0,0.58,0.909,2014_Nov_12_1312,1091.77443017,1081.60327598,0.922,MetaDots
1,158,Monolingual,7,8,1.0,left,left,10.354181010000152,5.0,50.0,55.0,0.5,0.637,2014_Nov_12_1312,1103.03761118,1091.77443017,0.909,MetaDots
1,159,Monolingual,7,9,1.0,right,right,9.908463019999942,4.0,50.0,46.0,0.5,0.7040000000000001,2014_Nov_12_1312,1113.5830742,1103.03761118,0.637,MetaDots
1,160,Monolingual,7,10,1.0,right,right,9.233157939999906,4.0,50.0,46.0,0.5,1.204,2014_Nov_12_1312,1123.52023214,1113.5830742,0.7040000000000001,MetaDots
1,161,Monolingual,7,11,0.0,left,right,14.602655439999985,3.0,50.0,53.0,0.64,2.326,2014_Nov_12_1312,1139.32688758,1123.52023214,1.204,MetaDots
1,162,Monolingual,7,12,0.0,right,left,9.385709970000129,4.0,50.0,46.0,0.38,0.7659999999999999,2014_Nov_12_1312,1151.03859755,1139.32688758,2.326,MetaDots
1,163,Monolingual,7,13,0.0,right,left,9.861279840000028,5.0,55.0,50.0,0.44,1.161,2014_Nov_12_1312,1161.66587739,1151.03859755,0.7659999999999999,MetaDots
1,164,Monolingual,7,14,0.0,right,left,8.495497139999829,6.0,56.0,50.0,0.42,1.8119999999999998,2014_Nov_12_1312,1171.32237453,1161.66587739,1.161,MetaDots
1,165,Monolingual,7,15,1.0,left,left,8.640440160000152,7.0,43.0,50.0,0.6,1.425,2014_Nov_12_1312,1181.77481469,1171.32237453,1.8119999999999998,MetaDots
1,166,Monolingual,7,16,1.0,right,right,10.51991959999982,7.0,57.0,50.0,0.38,1.297,2014_Nov_12_1312,1193.71973429,1181.77481469,1.425,MetaDots
1,167,Monolingual,7,17,1.0,right,right,11.182920080000056,6.0,50.0,44.0,0.5,0.909,2014_Nov_12_1312,1206.19965437,1193.71973429,1.297,MetaDots
1,168,Monolingual,7,18,1.0,right,right,5.241367279999955,6.0,56.0,50.0,0.5,1.2229999999999999,2014_Nov_12_1312,1212.35002165,1206.19965437,0.909,MetaDots
1,169,Monolingual,7,19,1.0,left,left,6.2182464199999705,5.0,45.0,50.0,0.32,1.379,2014_Nov_12_1312,1219.79126807,1212.35002165,1.2229999999999999,MetaDots
1,170,Monolingual,7,20,1.0,left,left,13.8891960299999,5.0,45.0,50.0,0.6,1.578,2014_Nov_12_1312,1235.0594640999998,1219.79126807,1.379,MetaDots
1,171,Monolingual,7,21,0.0,left,right,11.354318010000245,4.0,50.0,54.0,0.58,1.9680000000000002,2014_Nov_12_1312,1247.99178211,1235.0594640999998,1.578,MetaDots
1,172,Monolingual,7,22,1.0,right,right,11.904339600000032,5.0,50.0,45.0,0.6,1.205,2014_Nov_12_1312,1261.86412171,1247.99178211,1.9680000000000002,MetaDots
1,173,Monolingual,7,23,1.0,left,left,6.376536129999904,5.0,50.0,55.0,0.7,1.5930000000000002,2014_Nov_12_1312,1269.44565784,1261.86412171,1.205,MetaDots
1,174,Monolingual,7,24,1.0,left,left,9.342738639999954,4.0,46.0,50.0,0.26,1.811,2014_Nov_12_1312,1280.38139648,1269.44565784,1.5930000000000002,MetaDots
1,175,Monolingual,7,25,0.0,right,left,9.619499240000017,4.0,50.0,46.0,0.58,0.862,2014_Nov_12_1312,1291.81189572,1280.38139648,1.811,MetaDots
1,176,Monolingual,8,1,0.0,right,left,13.115766962081958,5.0,50.0,45.0,0.3,1.3559999999999999,2014_Nov_12_1312,1305.91808112,1291.81189572,0.862,MetaDots
1,177,Monolingual,8,2,1.0,left,left,7.235632170000139,6.0,50.0,56.0,0.38,0.8290000000000001,2014_Nov_12_1312,1314.50971329,1305.91808112,1.3559999999999999,MetaDots
1,178,Monolingual,8,3,1.0,right,right,7.442975229999953,6.0,56.0,50.0,0.38,1.4240000000000002,2014_Nov_12_1312,1322.78168852,1314.50971329,0.8290000000000001,MetaDots
1,179,Monolingual,8,4,1.0,left,left,9.195827030000125,5.0,45.0,50.0,0.38,1.0,2014_Nov_12_1312,1333.40151555,1322.78168852,1.4240000000000002,MetaDots
1,180,Monolingual,8,5,0.0,right,left,5.45804252999983,5.0,50.0,45.0,0.4,0.905,2014_Nov_12_1312,1339.85955808,1333.40151555,1.0,MetaDots
1,181,Monolingual,8,6,1.0,right,right,10.003234960000073,6.0,50.0,44.0,0.3,0.8959999999999999,2014_Nov_12_1312,1350.76779304,1339.85955808,0.905,MetaDots
1,182,Monolingual,8,7,0.0,left,right,12.360037919999925,6.0,44.0,50.0,0.36,0.8909999999999999,2014_Nov_12_1312,1364.02383096,1350.76779304,0.8959999999999999,MetaDots
1,183,Monolingual,8,8,1.0,right,right,10.298398170000004,7.0,57.0,50.0,0.64,0.922,2014_Nov_12_1312,1375.21322913,1364.02383096,0.8909999999999999,MetaDots
1,184,Monolingual,8,9,1.0,left,left,9.342433560000043,7.0,43.0,50.0,0.66,1.4369999999999998,2014_Nov_12_1312,1385.47766269,1375.21322913,0.922,MetaDots
1,185,Monolingual,8,10,1.0,right,right,11.179409909999903,6.0,56.0,50.0,0.6,0.753,2014_Nov_12_1312,1398.0940726,1385.47766269,1.4369999999999998,MetaDots
1,186,Monolingual,8,11,1.0,right,right,13.727599810000058,6.0,50.0,44.0,0.62,0.89,2014_Nov_12_1312,1412.57467241,1398.0940726,0.753,MetaDots
1,187,Monolingual,8,12,1.0,right,right,11.008821279999992,5.0,55.0,50.0,0.64,0.6,2014_Nov_12_1312,1424.47349369,1412.57467241,0.89,MetaDots
1,188,Monolingual,8,13,0.0,left,right,17.312553979999983,5.0,50.0,55.0,0.6,0.782,2014_Nov_12_1312,1442.38604767,1424.47349369,0.6,MetaDots
1,189,Monolingual,8,14,1.0,left,left,9.732676850000114,6.0,50.0,56.0,0.32,1.3130000000000002,2014_Nov_12_1312,1452.90072452,1442.38604767,0.782,MetaDots
1,190,Monolingual,8,15,1.0,left,left,6.502287319999924,6.0,44.0,50.0,0.4,1.172,2014_Nov_12_1312,1460.71601184,1452.90072452,1.3130000000000002,MetaDots
1,191,Monolingual,8,16,0.0,left,right,9.279803540000128,5.0,45.0,50.0,0.58,1.239,2014_Nov_12_1312,1471.16781538,1460.71601184,1.172,MetaDots
1,192,Monolingual,8,17,0.0,left,right,9.443075599999961,6.0,50.0,56.0,0.56,0.875,2014_Nov_12_1312,1481.84989098,1471.16781538,1.239,MetaDots
1,193,Monolingual,8,18,1.0,left,left,6.772912769999948,7.0,43.0,50.0,0.62,0.8290000000000001,2014_Nov_12_1312,1489.49780375,1481.84989098,0.875,MetaDots
1,194,Monolingual,8,19,1.0,right,right,4.209882199999989,7.0,50.0,43.0,0.68,0.691,2014_Nov_12_1312,1494.53668595,1489.49780375,0.8290000000000001,MetaDots
1,195,Monolingual,8,20,0.0,left,right,3.6258724800000293,6.0,50.0,56.0,0.68,1.22,2014_Nov_12_1312,1498.85355843,1494.53668595,0.691,MetaDots
1,196,Monolingual,8,21,1.0,right,right,11.260045909999944,7.0,50.0,43.0,0.58,0.628,2014_Nov_12_1312,1511.33360434,1498.85355843,1.22,MetaDots
1,197,Monolingual,8,22,1.0,right,right,6.392054840000057,7.0,57.0,50.0,0.58,0.47,2014_Nov_12_1312,1518.35365918,1511.33360434,0.628,MetaDots
1,198,Monolingual,8,23,1.0,left,left,2.0456852200000233,6.0,50.0,56.0,0.38,0.8909999999999999,2014_Nov_12_1312,1520.8693444,1518.35365918,0.47,MetaDots
1,199,Monolingual,8,24,1.0,left,left,10.820383529999921,6.0,50.0,56.0,0.38,0.596,2014_Nov_12_1312,1532.58072793,1520.8693444,0.8909999999999999,MetaDots
1,200,Monolingual,8,25,1.0,right,right,1.8531928600000391,5.0,55.0,50.0,0.58,0.47,2014_Nov_12_1312,1535.02992079,1532.58072793,0.596,MetaDots
2,1,Monolingual,1,1,1.0,right,right,5.318904181000022,1.0,50.0,49.0,0.36,1.676,2014_Nov_21_1152,201.11429197400003,,,MetaDots
2,2,Monolingual,1,2,1.0,right,right,3.6394743049999807,1.0,50.0,49.0,0.5,0.8390000000000001,2014_Nov_21_1152,206.429766279,201.11429197400003,1.676,MetaDots
2,3,Monolingual,1,3,1.0,left,left,3.9813208319999647,1.0,49.0,50.0,0.32,1.406,2014_Nov_21_1152,211.25008711099997,206.429766279,0.8390000000000001,MetaDots
2,4,Monolingual,1,4,1.0,right,right,2.0151792680000318,1.0,50.0,49.0,0.56,0.905,2014_Nov_21_1152,214.671266379,211.25008711099997,1.406,MetaDots
2,5,Monolingual,1,5,0.0,right,left,2.0115065239999987,1.0,50.0,49.0,0.54,1.065,2014_Nov_21_1152,217.587772903,214.671266379,0.905,MetaDots
2,6,Monolingual,1,6,1.0,left,left,2.7102097700000036,2.0,48.0,50.0,0.56,0.985,2014_Nov_21_1152,221.362982673,217.587772903,1.065,MetaDots
2,7,Monolingual,1,7,1.0,left,left,4.740118434999984,2.0,48.0,50.0,0.18,2.329,2014_Nov_21_1152,227.088101108,221.362982673,0.985,MetaDots
2,8,Monolingual,1,8,1.0,right,right,2.4092858010000175,1.0,50.0,49.0,0.58,1.27,2014_Nov_21_1152,231.826386909,227.088101108,2.329,MetaDots
2,9,Monolingual,1,9,0.0,right,left,1.5690685659999803,1.0,50.0,49.0,0.8,1.406,2014_Nov_21_1152,234.665455475,231.826386909,1.27,MetaDots
2,10,Monolingual,1,10,1.0,left,left,2.603461197999997,2.0,48.0,50.0,0.58,0.706,2014_Nov_21_1152,238.67491667299998,234.665455475,1.406,MetaDots
2,11,Monolingual,1,11,1.0,left,left,3.7239563390000288,2.0,50.0,52.0,0.34,1.048,2014_Nov_21_1152,243.104873012,238.67491667299998,0.706,MetaDots
2,12,Monolingual,1,12,0.0,left,right,1.8382016530000005,1.0,50.0,51.0,0.6,0.893,2014_Nov_21_1152,245.991074665,243.104873012,1.048,MetaDots
2,13,Monolingual,1,13,1.0,left,left,2.1845681840000006,2.0,50.0,52.0,0.56,1.6909999999999998,2014_Nov_21_1152,249.068642849,245.991074665,0.893,MetaDots
2,14,Monolingual,1,14,1.0,right,right,1.6159700060000004,2.0,52.0,50.0,0.56,0.753,2014_Nov_21_1152,252.375612855,249.068642849,1.6909999999999998,MetaDots
2,15,Monolingual,1,15,1.0,right,right,1.5360251869999928,1.0,51.0,50.0,0.6,0.8909999999999999,2014_Nov_21_1152,254.664638042,252.375612855,0.753,MetaDots
2,16,Monolingual,1,16,1.0,right,right,2.6229966769999944,1.0,50.0,49.0,0.38,1.237,2014_Nov_21_1152,258.178634719,254.664638042,0.8909999999999999,MetaDots
2,17,Monolingual,1,17,0.0,right,left,2.25740819199998,1.0,51.0,50.0,0.4,1.0190000000000001,2014_Nov_21_1152,261.673042911,258.178634719,1.237,MetaDots
2,18,Monolingual,1,18,1.0,right,right,1.706913432000027,2.0,52.0,50.0,0.6,0.7979999999999999,2014_Nov_21_1152,264.398956343,261.673042911,1.0190000000000001,MetaDots
2,19,Monolingual,1,19,0.0,right,left,1.7447797479999867,2.0,52.0,50.0,0.4,1.237,2014_Nov_21_1152,266.941736091,264.398956343,0.7979999999999999,MetaDots
2,20,Monolingual,1,20,1.0,left,left,1.9494821679999976,3.0,50.0,53.0,0.58,1.359,2014_Nov_21_1152,270.128218259,266.941736091,1.237,MetaDots
2,21,Monolingual,1,21,1.0,right,right,2.5096941480000314,3.0,53.0,50.0,0.22,2.124,2014_Nov_21_1152,273.996912407,270.128218259,1.359,MetaDots
2,22,Monolingual,1,22,1.0,right,right,2.957490368999937,2.0,52.0,50.0,0.2,1.454,2014_Nov_21_1152,279.07840277599996,273.996912407,2.124,MetaDots
2,23,Monolingual,1,23,1.0,left,left,1.436267702000017,2.0,50.0,52.0,0.72,1.018,2014_Nov_21_1152,281.968670478,279.07840277599996,1.454,MetaDots
2,24,Monolingual,1,24,1.0,left,left,3.111876884000055,1.0,49.0,50.0,0.34,1.33,2014_Nov_21_1152,286.09854736200003,281.968670478,1.018,MetaDots
2,25,Monolingual,1,25,1.0,left,left,2.434103145999968,1.0,49.0,50.0,0.5,1.3119999999999998,2014_Nov_21_1152,289.862650508,286.09854736200003,1.33,MetaDots
2,26,Monolingual,2,1,0.0,right,left,6.236433149940019,1.0,51.0,50.0,0.28,0.9520000000000001,2014_Nov_21_1152,299.373800247,289.862650508,1.3119999999999998,MetaDots
2,27,Monolingual,2,2,1.0,right,right,4.106513361999985,2.0,50.0,48.0,0.3,1.187,2014_Nov_21_1152,304.432313609,299.373800247,0.9520000000000001,MetaDots
2,28,Monolingual,2,3,0.0,right,left,2.027283702999978,2.0,52.0,50.0,0.4,1.249,2014_Nov_21_1152,307.646597312,304.432313609,1.187,MetaDots
2,29,Monolingual,2,4,0.0,left,right,4.694357760000026,3.0,50.0,53.0,0.2,1.54,2014_Nov_21_1152,313.589955072,307.646597312,1.249,MetaDots
2,30,Monolingual,2,5,1.0,left,left,2.1214584980000017,4.0,46.0,50.0,0.7,1.7180000000000002,2014_Nov_21_1152,317.25141357,313.589955072,1.54,MetaDots
2,31,Monolingual,2,6,1.0,right,right,3.216629524000002,4.0,50.0,46.0,0.6,0.907,2014_Nov_21_1152,322.186043094,317.25141357,1.7180000000000002,MetaDots
2,32,Monolingual,2,7,1.0,right,right,3.9597398750000075,3.0,53.0,50.0,0.58,0.813,2014_Nov_21_1152,327.052782969,322.186043094,0.907,MetaDots
2,33,Monolingual,2,8,1.0,left,left,4.923689210000009,3.0,50.0,53.0,0.34,0.9229999999999999,2014_Nov_21_1152,332.78947217900003,327.052782969,0.813,MetaDots
2,34,Monolingual,2,9,0.0,left,right,2.8048531859999475,2.0,50.0,52.0,0.28,1.172,2014_Nov_21_1152,336.517325365,332.78947217900003,0.9229999999999999,MetaDots
2,35,Monolingual,2,10,1.0,right,right,3.866723378000043,3.0,50.0,47.0,0.6,0.8,2014_Nov_21_1152,341.556048743,336.517325365,1.172,MetaDots
2,36,Monolingual,2,11,1.0,right,right,4.227218156999936,3.0,50.0,47.0,0.16,2.245,2014_Nov_21_1152,346.58326689999996,341.556048743,0.8,MetaDots
2,37,Monolingual,2,12,0.0,left,right,4.209369794000058,2.0,50.0,52.0,0.4,1.515,2014_Nov_21_1152,353.037636694,346.58326689999996,2.245,MetaDots
2,38,Monolingual,2,13,0.0,right,left,4.802909446999977,3.0,53.0,50.0,0.62,0.875,2014_Nov_21_1152,359.355546141,353.037636694,1.515,MetaDots
2,39,Monolingual,2,14,1.0,left,left,2.5256572020000476,4.0,46.0,50.0,0.62,0.847,2014_Nov_21_1152,362.75620334300004,359.355546141,0.875,MetaDots
2,40,Monolingual,2,15,1.0,left,left,4.207320165999969,4.0,46.0,50.0,0.36,2.199,2014_Nov_21_1152,367.810523509,362.75620334300004,0.847,MetaDots
2,41,Monolingual,2,16,1.0,left,left,3.27655926900003,3.0,50.0,53.0,0.34,1.206,2014_Nov_21_1152,373.28608277800004,367.810523509,2.199,MetaDots
2,42,Monolingual,2,17,1.0,left,left,1.617658757999965,3.0,47.0,50.0,0.68,0.595,2014_Nov_21_1152,376.109741536,373.28608277800004,1.206,MetaDots
2,43,Monolingual,2,18,0.0,left,right,3.917402725999948,2.0,48.0,50.0,0.2,1.281,2014_Nov_21_1152,380.62214426199995,376.109741536,0.595,MetaDots
2,44,Monolingual,2,19,1.0,left,left,1.8972770370000436,3.0,47.0,50.0,0.62,1.1440000000000001,2014_Nov_21_1152,383.800421299,380.62214426199995,1.281,MetaDots
2,45,Monolingual,2,20,0.0,right,left,2.8537711960000305,3.0,53.0,50.0,0.6,0.9890000000000001,2014_Nov_21_1152,387.798192495,383.800421299,1.1440000000000001,MetaDots
2,46,Monolingual,2,21,0.0,right,left,6.561620599000013,4.0,54.0,50.0,0.32,1.188,2014_Nov_21_1152,395.34881309400004,387.798192495,0.9890000000000001,MetaDots
2,47,Monolingual,2,22,1.0,right,right,1.4283513959999705,5.0,50.0,45.0,0.56,0.737,2014_Nov_21_1152,397.96516449,395.34881309400004,1.188,MetaDots
2,48,Monolingual,2,23,1.0,right,right,2.3091392330000193,5.0,50.0,45.0,0.34,1.1440000000000001,2014_Nov_21_1152,401.011303723,397.96516449,0.737,MetaDots
2,49,Monolingual,2,24,0.0,right,left,2.537546770000011,4.0,54.0,50.0,0.36,2.3569999999999998,2014_Nov_21_1152,404.69285049300004,401.011303723,1.1440000000000001,MetaDots
2,50,Monolingual,2,25,1.0,right,right,4.007808919999974,5.0,55.0,50.0,0.62,0.9540000000000001,2014_Nov_21_1152,411.057659413,404.69285049300004,2.3569999999999998,MetaDots
2,51,Monolingual,3,1,1.0,right,right,4.620544384339033,5.0,55.0,50.0,0.36,0.8009999999999999,2014_Nov_21_1152,417.20404422800004,411.057659413,0.9540000000000001,MetaDots
2,52,Monolingual,3,2,1.0,right,right,2.0495891849999897,4.0,54.0,50.0,0.6,1.406,2014_Nov_21_1152,420.05463341300003,417.20404422800004,0.8009999999999999,MetaDots
2,53,Monolingual,3,3,1.0,right,right,3.5277021029999736,4.0,54.0,50.0,0.3,1.11,2014_Nov_21_1152,424.988335516,420.05463341300003,1.406,MetaDots
2,54,Monolingual,3,4,1.0,left,left,2.041741687000026,3.0,47.0,50.0,0.58,0.86,2014_Nov_21_1152,428.14007720300003,424.988335516,1.11,MetaDots
2,55,Monolingual,3,5,1.0,left,left,4.287621083999922,3.0,50.0,53.0,0.28,0.907,2014_Nov_21_1152,433.28769828699996,428.14007720300003,0.86,MetaDots
2,56,Monolingual,3,6,1.0,left,left,1.6314906430000455,2.0,50.0,52.0,0.6,0.5820000000000001,2014_Nov_21_1152,435.82618893,433.28769828699996,0.907,MetaDots
2,57,Monolingual,3,7,1.0,left,left,2.3352139689999882,2.0,50.0,52.0,0.58,0.845,2014_Nov_21_1152,438.743402899,435.82618893,0.5820000000000001,MetaDots
2,58,Monolingual,3,8,1.0,right,right,2.2281352130000007,1.0,50.0,49.0,0.28,1.187,2014_Nov_21_1152,441.816538112,438.743402899,0.845,MetaDots
2,59,Monolingual,3,9,1.0,right,right,3.617782998000007,1.0,50.0,49.0,0.26,1.107,2014_Nov_21_1152,446.62132111,441.816538112,1.187,MetaDots
2,60,Monolingual,3,10,1.0,left,left,2.453857434000013,1.0,49.0,50.0,0.32,1.4,2014_Nov_21_1152,450.182178544,446.62132111,1.107,MetaDots
2,61,Monolingual,3,11,0.0,right,left,1.5131426399999897,1.0,50.0,49.0,0.68,0.491,2014_Nov_21_1152,453.095321184,450.182178544,1.4,MetaDots
2,62,Monolingual,3,12,1.0,left,left,2.836130870000019,2.0,50.0,52.0,0.62,0.737,2014_Nov_21_1152,456.422452054,453.095321184,0.491,MetaDots
2,63,Monolingual,3,13,1.0,left,left,5.065839722999977,2.0,50.0,52.0,0.32,1.234,2014_Nov_21_1152,462.225291777,456.422452054,0.737,MetaDots
2,64,Monolingual,3,14,0.0,right,left,2.3077370590000132,1.0,51.0,50.0,0.6,0.769,2014_Nov_21_1152,465.767028836,462.225291777,1.234,MetaDots
2,65,Monolingual,3,15,0.0,right,left,2.0344244220000345,2.0,52.0,50.0,0.66,0.982,2014_Nov_21_1152,468.57045325800004,465.767028836,0.769,MetaDots
2,66,Monolingual,3,16,1.0,left,left,5.351414723999908,3.0,50.0,53.0,0.6,1.061,2014_Nov_21_1152,474.90386798199995,468.57045325800004,0.982,MetaDots
2,67,Monolingual,3,17,1.0,right,right,3.248956849999992,3.0,53.0,50.0,0.36,0.784,2014_Nov_21_1152,479.21382483199994,474.90386798199995,1.061,MetaDots
2,68,Monolingual,3,18,1.0,right,right,4.156813509000066,2.0,52.0,50.0,0.38,0.94,2014_Nov_21_1152,484.154638341,479.21382483199994,0.784,MetaDots
2,69,Monolingual,3,19,1.0,right,right,3.9781664679999813,2.0,52.0,50.0,0.6,0.547,2014_Nov_21_1152,489.072804809,484.154638341,0.94,MetaDots
2,70,Monolingual,3,20,1.0,left,left,4.4408612450000335,1.0,50.0,51.0,0.36,1.124,2014_Nov_21_1152,494.060666054,489.072804809,0.547,MetaDots
2,71,Monolingual,3,21,0.0,right,left,2.1367216650000054,1.0,50.0,49.0,0.58,0.5920000000000001,2014_Nov_21_1152,497.32138771900003,494.060666054,1.124,MetaDots
2,72,Monolingual,3,22,1.0,right,right,4.025662456999937,2.0,50.0,48.0,0.62,1.5519999999999998,2014_Nov_21_1152,501.93905017599997,497.32138771900003,0.5920000000000001,MetaDots
2,73,Monolingual,3,23,0.0,left,right,3.802424259000041,2.0,50.0,52.0,0.24,1.611,2014_Nov_21_1152,507.293474435,501.93905017599997,1.5519999999999998,MetaDots
2,74,Monolingual,3,24,0.0,left,right,5.49831390199994,3.0,47.0,50.0,0.34,1.281,2014_Nov_21_1152,514.402788337,507.293474435,1.611,MetaDots
2,75,Monolingual,3,25,1.0,right,right,2.353935907000113,4.0,50.0,46.0,0.62,0.532,2014_Nov_21_1152,518.0377242440001,514.402788337,1.281,MetaDots
2,76,Monolingual,4,1,1.0,left,left,5.379982923399933,4.0,46.0,50.0,0.58,0.7040000000000001,2014_Nov_21_1152,528.895226418,518.0377242440001,0.532,MetaDots
2,77,Monolingual,4,2,0.0,right,left,6.7527081449999935,3.0,50.0,47.0,0.36,0.797,2014_Nov_21_1152,536.351934563,528.895226418,0.7040000000000001,MetaDots
2,78,Monolingual,4,3,1.0,right,right,1.2776671310000691,4.0,54.0,50.0,0.72,1.0959999999999999,2014_Nov_21_1152,538.426601694,536.351934563,0.797,MetaDots
2,79,Monolingual,4,4,1.0,left,left,1.0921658699999208,4.0,50.0,54.0,0.64,0.9890000000000001,2014_Nov_21_1152,540.614767564,538.426601694,1.0959999999999999,MetaDots
2,80,Monolingual,4,5,0.0,right,left,5.1583637110000256,3.0,53.0,50.0,0.58,0.613,2014_Nov_21_1152,546.762131275,540.614767564,0.9890000000000001,MetaDots
2,81,Monolingual,4,6,1.0,left,left,5.029016077999984,4.0,50.0,54.0,0.26,3.779,2014_Nov_21_1152,552.404147353,546.762131275,0.613,MetaDots
2,82,Monolingual,4,7,1.0,right,right,1.9773529269999663,4.0,50.0,46.0,0.64,0.812,2014_Nov_21_1152,558.16050028,552.404147353,3.779,MetaDots
2,83,Monolingual,4,8,1.0,right,right,2.2186269160000736,3.0,50.0,47.0,0.62,0.61,2014_Nov_21_1152,561.191127196,558.16050028,0.812,MetaDots
2,84,Monolingual,4,9,1.0,right,right,4.492120662999937,3.0,50.0,47.0,0.4,1.234,2014_Nov_21_1152,566.293247859,561.191127196,0.61,MetaDots
2,85,Monolingual,4,10,1.0,left,left,2.7279977050000443,2.0,48.0,50.0,0.3,1.354,2014_Nov_21_1152,570.255245564,566.293247859,1.234,MetaDots
2,86,Monolingual,4,11,1.0,right,right,3.445954069000023,2.0,50.0,48.0,0.6,0.735,2014_Nov_21_1152,575.055199633,570.255245564,1.354,MetaDots
2,87,Monolingual,4,12,0.0,right,left,2.622349070000055,1.0,51.0,50.0,0.38,0.7709999999999999,2014_Nov_21_1152,578.4125487030001,575.055199633,0.735,MetaDots
2,88,Monolingual,4,13,1.0,right,right,2.1625784749999903,2.0,52.0,50.0,0.36,0.8420000000000001,2014_Nov_21_1152,581.3461271780001,578.4125487030001,0.7709999999999999,MetaDots
2,89,Monolingual,4,14,0.0,left,right,1.4625999769999525,2.0,50.0,52.0,0.64,0.578,2014_Nov_21_1152,583.650727155,581.3461271780001,0.8420000000000001,MetaDots
2,90,Monolingual,4,15,1.0,left,left,3.524980331999902,3.0,50.0,53.0,0.6,0.735,2014_Nov_21_1152,587.7537074869999,583.650727155,0.578,MetaDots
2,91,Monolingual,4,16,1.0,left,left,2.732113924000046,3.0,50.0,53.0,0.74,1.263,2014_Nov_21_1152,591.220821411,587.7537074869999,0.735,MetaDots
2,92,Monolingual,4,17,1.0,left,left,1.9619494930000538,2.0,50.0,52.0,0.6,0.863,2014_Nov_21_1152,594.445770904,591.220821411,1.263,MetaDots
2,93,Monolingual,4,18,0.0,left,right,1.5551897849999814,2.0,50.0,52.0,0.56,1.298,2014_Nov_21_1152,596.863960689,594.445770904,0.863,MetaDots
2,94,Monolingual,4,19,1.0,right,right,2.3837957839999735,3.0,50.0,47.0,0.56,0.519,2014_Nov_21_1152,600.545756473,596.863960689,1.298,MetaDots
2,95,Monolingual,4,20,0.0,left,right,3.536779052000048,3.0,50.0,53.0,0.18,0.626,2014_Nov_21_1152,604.601535525,600.545756473,0.519,MetaDots
2,96,Monolingual,4,21,1.0,right,right,1.85433232399996,4.0,54.0,50.0,0.62,0.47200000000000003,2014_Nov_21_1152,607.081867849,604.601535525,0.626,MetaDots
2,97,Monolingual,4,22,0.0,right,left,3.599523663999983,4.0,54.0,50.0,0.24,1.6740000000000002,2014_Nov_21_1152,611.153391513,607.081867849,0.47200000000000003,MetaDots
2,98,Monolingual,4,23,1.0,left,left,3.0255435039999616,5.0,45.0,50.0,0.74,1.297,2014_Nov_21_1152,615.8529350169999,611.153391513,1.6740000000000002,MetaDots
2,99,Monolingual,4,24,1.0,left,left,2.0846956510000867,5.0,50.0,55.0,0.58,0.8140000000000001,2014_Nov_21_1152,619.234630668,615.8529350169999,1.297,MetaDots
2,100,Monolingual,4,25,1.0,right,right,2.399034675000017,4.0,54.0,50.0,0.62,1.078,2014_Nov_21_1152,622.447665343,619.234630668,0.8140000000000001,MetaDots
2,101,Monolingual,5,1,1.0,left,left,3.457930554339937,4.0,50.0,54.0,0.64,1.028,2014_Nov_21_1152,629.233778478,622.447665343,1.078,MetaDots
2,102,Monolingual,5,2,1.0,right,right,2.981199426000009,3.0,50.0,47.0,0.28,0.53,2014_Nov_21_1152,633.242977904,629.233778478,1.028,MetaDots
2,103,Monolingual,5,3,1.0,right,right,3.962706011999985,3.0,50.0,47.0,0.34,1.0190000000000001,2014_Nov_21_1152,637.735683916,633.242977904,0.53,MetaDots
2,104,Monolingual,5,4,1.0,left,left,2.2413204270000104,2.0,50.0,52.0,0.58,0.607,2014_Nov_21_1152,640.996004343,637.735683916,1.0190000000000001,MetaDots
2,105,Monolingual,5,5,1.0,right,right,2.751794317000047,2.0,50.0,48.0,0.62,0.813,2014_Nov_21_1152,644.35479866,640.996004343,0.607,MetaDots
2,106,Monolingual,5,6,0.0,left,right,1.6043811509999724,1.0,50.0,51.0,0.6,0.516,2014_Nov_21_1152,646.772179811,644.35479866,0.813,MetaDots
2,107,Monolingual,5,7,0.0,right,left,4.008746058999995,2.0,52.0,50.0,0.68,1.126,2014_Nov_21_1152,651.29692587,646.772179811,0.516,MetaDots
2,108,Monolingual,5,8,1.0,right,right,6.236220233000017,3.0,53.0,50.0,0.34,1.264,2014_Nov_21_1152,658.659146103,651.29692587,1.126,MetaDots
2,109,Monolingual,5,9,1.0,right,right,3.5835253500000688,3.0,53.0,50.0,0.38,0.862,2014_Nov_21_1152,663.5066714530001,658.659146103,1.264,MetaDots
2,110,Monolingual,5,10,1.0,right,right,4.036324129999992,2.0,52.0,50.0,0.62,0.613,2014_Nov_21_1152,668.4049955830001,663.5066714530001,0.862,MetaDots
2,111,Monolingual,5,11,1.0,right,right,5.252595995999911,2.0,50.0,48.0,0.62,0.718,2014_Nov_21_1152,674.270591579,668.4049955830001,0.613,MetaDots
2,112,Monolingual,5,12,1.0,left,left,2.7296209079999763,1.0,50.0,51.0,0.68,0.629,2014_Nov_21_1152,677.718212487,674.270591579,0.718,MetaDots
2,113,Monolingual,5,13,1.0,left,left,4.616460121000065,1.0,50.0,51.0,0.3,1.2009999999999998,2014_Nov_21_1152,682.963672608,677.718212487,0.629,MetaDots
2,114,Monolingual,5,14,1.0,left,left,4.040593810000041,1.0,49.0,50.0,0.58,0.5770000000000001,2014_Nov_21_1152,688.2052664180001,682.963672608,1.2009999999999998,MetaDots
2,115,Monolingual,5,15,1.0,right,right,1.805854048000013,1.0,51.0,50.0,0.58,0.424,2014_Nov_21_1152,690.5881204660001,688.2052664180001,0.5770000000000001,MetaDots
2,116,Monolingual,5,16,1.0,left,left,3.901174837999839,1.0,49.0,50.0,0.28,2.7039999999999997,2014_Nov_21_1152,694.9132953039999,690.5881204660001,0.424,MetaDots
2,117,Monolingual,5,17,1.0,left,left,1.7066740610001228,1.0,50.0,51.0,0.6,0.473,2014_Nov_21_1152,699.323969365,694.9132953039999,2.7039999999999997,MetaDots
2,118,Monolingual,5,18,0.0,left,right,2.994084446999934,1.0,50.0,51.0,0.38,0.6920000000000001,2014_Nov_21_1152,702.791053812,699.323969365,0.473,MetaDots
2,119,Monolingual,5,19,0.0,right,left,6.604877474000098,2.0,52.0,50.0,0.2,1.91,2014_Nov_21_1152,710.0879312860001,702.791053812,0.6920000000000001,MetaDots
2,120,Monolingual,5,20,1.0,left,left,9.18127493199992,3.0,47.0,50.0,0.22,1.442,2014_Nov_21_1152,721.179206218,710.0879312860001,1.91,MetaDots
2,121,Monolingual,5,21,0.0,left,right,3.8663351819999505,3.0,50.0,53.0,0.36,0.86,2014_Nov_21_1152,726.4875413999999,721.179206218,1.442,MetaDots
2,122,Monolingual,5,22,1.0,left,left,2.447376082000019,4.0,46.0,50.0,0.66,0.953,2014_Nov_21_1152,729.794917482,726.4875413999999,0.86,MetaDots
2,123,Monolingual,5,23,1.0,left,left,2.1045934199999894,4.0,50.0,54.0,0.68,0.813,2014_Nov_21_1152,732.852510902,729.794917482,0.953,MetaDots
2,124,Monolingual,5,24,1.0,left,left,1.6318192849999942,3.0,47.0,50.0,0.72,0.815,2014_Nov_21_1152,735.297330187,732.852510902,0.813,MetaDots
2,125,Monolingual,5,25,1.0,right,right,6.474693915000044,3.0,50.0,47.0,0.38,0.831,2014_Nov_21_1152,742.587024102,735.297330187,0.815,MetaDots
2,126,Monolingual,6,1,0.0,right,left,3.523862013059003,2.0,52.0,50.0,0.64,0.439,2014_Nov_21_1152,747.531690283,742.587024102,0.831,MetaDots
2,127,Monolingual,6,2,1.0,left,left,3.1023419809999595,3.0,50.0,53.0,0.58,0.802,2014_Nov_21_1152,751.073032264,747.531690283,0.439,MetaDots
2,128,Monolingual,6,3,0.0,left,right,5.719230832000129,3.0,47.0,50.0,0.26,0.7509999999999999,2014_Nov_21_1152,757.5942630960001,751.073032264,0.802,MetaDots
2,129,Monolingual,6,4,1.0,left,left,3.799679111999898,4.0,50.0,54.0,0.64,0.599,2014_Nov_21_1152,762.144942208,757.5942630960001,0.7509999999999999,MetaDots
2,130,Monolingual,6,5,1.0,right,right,1.710120058000076,4.0,50.0,46.0,0.62,0.7659999999999999,2014_Nov_21_1152,764.454062266,762.144942208,0.599,MetaDots
2,131,Monolingual,6,6,1.0,left,left,3.6795658850000645,3.0,50.0,53.0,0.2,1.5090000000000001,2014_Nov_21_1152,768.8996281510001,764.454062266,0.7659999999999999,MetaDots
2,132,Monolingual,6,7,1.0,right,right,4.153803435999876,3.0,53.0,50.0,0.7,0.745,2014_Nov_21_1152,774.562431587,768.8996281510001,1.5090000000000001,MetaDots
2,133,Monolingual,6,8,0.0,right,left,7.33979529900012,2.0,52.0,50.0,0.14,1.515,2014_Nov_21_1152,782.6472268860001,774.562431587,0.745,MetaDots
2,134,Monolingual,6,9,1.0,left,left,5.032802256999944,3.0,47.0,50.0,0.6,0.7070000000000001,2014_Nov_21_1152,789.195029143,782.6472268860001,1.515,MetaDots
2,135,Monolingual,6,10,0.0,right,left,1.8826053089999213,3.0,53.0,50.0,0.36,1.848,2014_Nov_21_1152,791.784634452,789.195029143,0.7070000000000001,MetaDots
2,136,Monolingual,6,11,1.0,left,left,1.458933929000138,4.0,46.0,50.0,0.82,1.02,2014_Nov_21_1152,795.0915683810001,791.784634452,1.848,MetaDots
2,137,Monolingual,6,12,1.0,right,right,2.0265822659998594,4.0,50.0,46.0,0.64,0.902,2014_Nov_21_1152,798.138150647,795.0915683810001,1.02,MetaDots
2,138,Monolingual,6,13,0.0,right,left,6.394277818000021,3.0,53.0,50.0,0.62,2.6860000000000004,2014_Nov_21_1152,805.434428465,798.138150647,0.902,MetaDots
2,139,Monolingual,6,14,1.0,left,left,1.764353898999992,4.0,50.0,54.0,0.32,0.9540000000000001,2014_Nov_21_1152,809.884782364,805.434428465,2.6860000000000004,MetaDots
2,140,Monolingual,6,15,1.0,left,left,2.1461364730000203,4.0,50.0,54.0,0.6,0.5820000000000001,2014_Nov_21_1152,812.984918837,809.884782364,0.9540000000000001,MetaDots
2,141,Monolingual,6,16,1.0,left,left,5.194596942999959,3.0,50.0,53.0,0.64,1.084,2014_Nov_21_1152,818.76151578,812.984918837,0.5820000000000001,MetaDots
2,142,Monolingual,6,17,1.0,left,left,2.269497718000085,3.0,47.0,50.0,0.64,0.787,2014_Nov_21_1152,822.115013498,818.76151578,1.084,MetaDots
2,143,Monolingual,6,18,1.0,left,left,1.8958903880000326,2.0,50.0,52.0,0.7,0.856,2014_Nov_21_1152,824.7979038860001,822.115013498,0.787,MetaDots
2,144,Monolingual,6,19,0.0,left,right,3.13370860999998,2.0,50.0,52.0,0.72,0.831,2014_Nov_21_1152,828.7876124960001,824.7979038860001,0.856,MetaDots
2,145,Monolingual,6,20,0.0,left,right,6.532076382999907,3.0,47.0,50.0,0.26,0.8759999999999999,2014_Nov_21_1152,836.150688879,828.7876124960001,0.831,MetaDots
2,146,Monolingual,6,21,0.0,left,right,7.391952299000058,4.0,50.0,54.0,0.28,1.359,2014_Nov_21_1152,844.418641178,836.150688879,0.8759999999999999,MetaDots
2,147,Monolingual,6,22,0.0,left,right,5.427072218999948,5.0,50.0,55.0,0.14,1.847,2014_Nov_21_1152,851.204713397,844.418641178,1.359,MetaDots
2,148,Monolingual,6,23,1.0,left,left,3.815515706000022,6.0,44.0,50.0,0.66,1.235,2014_Nov_21_1152,856.867229103,851.204713397,1.847,MetaDots
2,149,Monolingual,6,24,0.0,right,left,8.54621777399997,6.0,50.0,44.0,0.08,1.128,2014_Nov_21_1152,866.648446877,856.867229103,1.235,MetaDots
2,150,Monolingual,6,25,1.0,left,left,2.4131879969999517,7.0,43.0,50.0,0.72,0.66,2014_Nov_21_1152,870.1896348739999,866.648446877,1.128,MetaDots
2,151,Monolingual,7,1,1.0,right,right,4.426201389383088,7.0,57.0,50.0,0.62,0.61,2014_Nov_21_1152,875.992843278,870.1896348739999,0.66,MetaDots
2,152,Monolingual,7,2,0.0,left,right,3.586292688999961,6.0,44.0,50.0,0.36,0.982,2014_Nov_21_1152,880.189135967,875.992843278,0.61,MetaDots
2,153,Monolingual,7,3,1.0,left,left,2.532365798000085,7.0,43.0,50.0,0.6,0.581,2014_Nov_21_1152,883.703501765,880.189135967,0.982,MetaDots
2,154,Monolingual,7,4,1.0,left,left,2.1289765589998697,7.0,43.0,50.0,0.56,1.453,2014_Nov_21_1152,886.4134783239999,883.703501765,0.581,MetaDots
2,155,Monolingual,7,5,1.0,right,right,2.4783580310000586,6.0,56.0,50.0,0.62,0.517,2014_Nov_21_1152,890.344836355,886.4134783239999,1.453,MetaDots
2,156,Monolingual,7,6,1.0,right,right,3.6995155870000036,6.0,50.0,44.0,0.28,0.9059999999999999,2014_Nov_21_1152,894.561351942,890.344836355,0.517,MetaDots
2,157,Monolingual,7,7,1.0,right,right,2.427760087999963,5.0,50.0,45.0,0.62,0.452,2014_Nov_21_1152,897.89511203,894.561351942,0.9059999999999999,MetaDots
2,158,Monolingual,7,8,1.0,left,left,1.2682644289999399,5.0,45.0,50.0,0.74,1.003,2014_Nov_21_1152,899.6153764589999,897.89511203,0.452,MetaDots
2,159,Monolingual,7,9,0.0,left,right,5.221545616000114,4.0,46.0,50.0,0.56,1.047,2014_Nov_21_1152,905.839922075,899.6153764589999,1.003,MetaDots
2,160,Monolingual,7,10,1.0,right,right,2.9888777599999488,5.0,55.0,50.0,0.3,0.927,2014_Nov_21_1152,909.875799835,905.839922075,1.047,MetaDots
2,161,Monolingual,7,11,0.0,right,left,3.2227077830000534,5.0,55.0,50.0,0.28,0.909,2014_Nov_21_1152,914.025507618,909.875799835,0.927,MetaDots
2,162,Monolingual,7,12,0.0,right,left,2.277872847000018,6.0,56.0,50.0,0.36,1.2329999999999999,2014_Nov_21_1152,917.212380465,914.025507618,0.909,MetaDots
2,163,Monolingual,7,13,1.0,right,right,5.4278095670000015,7.0,50.0,43.0,0.56,0.938,2014_Nov_21_1152,923.873190032,917.212380465,1.2329999999999999,MetaDots
2,164,Monolingual,7,14,1.0,left,left,1.7923877569999032,7.0,43.0,50.0,0.74,0.8140000000000001,2014_Nov_21_1152,926.6035777889999,923.873190032,0.938,MetaDots
2,165,Monolingual,7,15,1.0,left,left,2.2388344440001546,6.0,44.0,50.0,0.5,1.078,2014_Nov_21_1152,929.6564122330001,926.6035777889999,0.8140000000000001,MetaDots
2,166,Monolingual,7,16,1.0,right,right,8.640873736999968,6.0,56.0,50.0,0.64,1.925,2014_Nov_21_1152,939.37528597,929.6564122330001,1.078,MetaDots
2,167,Monolingual,7,17,1.0,left,left,1.4952927619999172,5.0,50.0,55.0,0.64,1.253,2014_Nov_21_1152,942.795578732,939.37528597,1.925,MetaDots
2,168,Monolingual,7,18,1.0,right,right,3.4074386870000097,5.0,50.0,45.0,0.62,0.627,2014_Nov_21_1152,947.456017419,942.795578732,1.253,MetaDots
2,169,Monolingual,7,19,1.0,left,left,1.3541559160000343,4.0,46.0,50.0,0.32,0.9690000000000001,2014_Nov_21_1152,949.437173335,947.456017419,0.627,MetaDots
2,170,Monolingual,7,20,1.0,left,left,1.3594978049999835,4.0,50.0,54.0,0.72,0.47,2014_Nov_21_1152,951.76567114,949.437173335,0.9690000000000001,MetaDots
2,171,Monolingual,7,21,1.0,right,right,6.639156397999982,3.0,53.0,50.0,0.6,0.94,2014_Nov_21_1152,958.874827538,951.76567114,0.47,MetaDots
2,172,Monolingual,7,22,1.0,right,right,2.64830392699997,3.0,53.0,50.0,0.64,0.985,2014_Nov_21_1152,962.463131465,958.874827538,0.94,MetaDots
2,173,Monolingual,7,23,0.0,left,right,3.679227565000033,2.0,50.0,52.0,0.36,1.047,2014_Nov_21_1152,967.12735903,962.463131465,0.985,MetaDots
2,174,Monolingual,7,24,1.0,left,left,2.5879389869999416,3.0,47.0,50.0,0.34,0.7190000000000001,2014_Nov_21_1152,970.7622980169999,967.12735903,1.047,MetaDots
2,175,Monolingual,7,25,1.0,left,left,2.400728479000173,3.0,47.0,50.0,0.72,0.732,2014_Nov_21_1152,973.8820264960001,970.7622980169999,0.7190000000000001,MetaDots
2,176,Monolingual,8,1,1.0,right,right,6.3528494126269,2.0,50.0,48.0,0.34,0.797,2014_Nov_21_1152,981.619931297,973.8820264960001,0.732,MetaDots
2,177,Monolingual,8,2,1.0,left,left,1.5427443340001017,2.0,48.0,50.0,0.58,1.094,2014_Nov_21_1152,983.9596756310001,981.619931297,0.797,MetaDots
2,178,Monolingual,8,3,1.0,right,right,1.6204161289999146,1.0,50.0,49.0,0.62,1.64,2014_Nov_21_1152,986.67409176,983.9596756310001,1.094,MetaDots
2,179,Monolingual,8,4,0.0,right,left,6.7996361939999455,1.0,51.0,50.0,0.5,1.074,2014_Nov_21_1152,995.113727954,986.67409176,1.64,MetaDots
2,180,Monolingual,8,5,0.0,right,left,3.1378595599999937,2.0,52.0,50.0,0.58,0.45799999999999996,2014_Nov_21_1152,999.325587514,995.113727954,1.074,MetaDots
2,181,Monolingual,8,6,1.0,right,right,1.9643543860000519,3.0,50.0,47.0,0.56,1.297,2014_Nov_21_1152,1001.7479419,999.325587514,0.45799999999999996,MetaDots
2,182,Monolingual,8,7,0.0,right,left,1.4597075299999716,3.0,53.0,50.0,0.34,1.031,2014_Nov_21_1152,1004.50464943,1001.7479419,1.297,MetaDots
2,183,Monolingual,8,8,1.0,right,right,1.734182350000032,4.0,50.0,46.0,0.62,2.471,2014_Nov_21_1152,1007.26983178,1004.50464943,1.031,MetaDots
2,184,Monolingual,8,9,1.0,right,right,4.966372630000027,4.0,54.0,50.0,0.64,1.9340000000000002,2014_Nov_21_1152,1014.70720441,1007.26983178,2.471,MetaDots
2,185,Monolingual,8,10,1.0,left,left,6.697038799999942,3.0,50.0,53.0,0.16,0.8290000000000001,2014_Nov_21_1152,1023.33824321,1014.70720441,1.9340000000000002,MetaDots
2,186,Monolingual,8,11,1.0,right,right,5.379318380000037,3.0,53.0,50.0,0.64,2.713,2014_Nov_21_1152,1029.54656159,1023.33824321,0.8290000000000001,MetaDots
2,187,Monolingual,8,12,0.0,right,left,1.2962297799999414,2.0,52.0,50.0,0.7,0.61,2014_Nov_21_1152,1033.55579137,1029.54656159,2.713,MetaDots
2,188,Monolingual,8,13,1.0,right,right,7.174738280000056,3.0,50.0,47.0,0.3,0.862,2014_Nov_21_1152,1041.34052965,1033.55579137,0.61,MetaDots
2,189,Monolingual,8,14,1.0,left,left,1.3799893300000239,3.0,47.0,50.0,0.26,0.813,2014_Nov_21_1152,1043.58251898,1041.34052965,0.862,MetaDots
2,190,Monolingual,8,15,0.0,left,right,5.005850070000053,2.0,50.0,52.0,0.58,1.8259999999999998,2014_Nov_21_1152,1049.40136905,1043.58251898,0.813,MetaDots
2,191,Monolingual,8,16,1.0,right,right,5.323434129999918,3.0,53.0,50.0,0.32,1.925,2014_Nov_21_1152,1056.55080318,1049.40136905,1.8259999999999998,MetaDots
2,192,Monolingual,8,17,0.0,right,left,4.029547090000006,3.0,53.0,50.0,0.7,2.2640000000000002,2014_Nov_21_1152,1062.50535027,1056.55080318,1.925,MetaDots
2,193,Monolingual,8,18,1.0,left,left,4.350280100000087,4.0,46.0,50.0,0.32,1.359,2014_Nov_21_1152,1069.11963037,1062.50535027,2.2640000000000002,MetaDots
2,194,Monolingual,8,19,1.0,left,left,5.696811609999864,4.0,50.0,54.0,0.6,0.7709999999999999,2014_Nov_21_1152,1076.17544198,1069.11963037,1.359,MetaDots
2,195,Monolingual,8,20,1.0,right,right,4.563545840000146,3.0,50.0,47.0,0.14,1.936,2014_Nov_21_1152,1081.50998782,1076.17544198,0.7709999999999999,MetaDots
2,196,Monolingual,8,21,1.0,right,right,7.580180609999992,3.0,50.0,47.0,0.56,0.985,2014_Nov_21_1152,1091.02616843,1081.50998782,1.936,MetaDots
2,197,Monolingual,8,22,1.0,left,left,8.468269030000002,2.0,50.0,52.0,0.12,1.203,2014_Nov_21_1152,1100.47943746,1091.02616843,0.985,MetaDots
2,198,Monolingual,8,23,1.0,left,left,1.4760482699998392,2.0,50.0,52.0,0.6,0.825,2014_Nov_21_1152,1103.15848573,1100.47943746,1.203,MetaDots
2,199,Monolingual,8,24,0.0,right,left,4.810518850000153,1.0,50.0,49.0,0.34,0.877,2014_Nov_21_1152,1108.79400458,1103.15848573,0.825,MetaDots
2,200,Monolingual,8,25,1.0,left,left,6.560182570000005,2.0,48.0,50.0,0.3,0.423,2014_Nov_21_1152,1116.23118715,1108.79400458,0.877,MetaDots
3,1,Monolingual,1,1,1.0,left,left,6.432478151999987,5.0,50.0,55.0,0.76,0.863,2014_Nov_21_1228,169.934029428,,,MetaDots
3,2,Monolingual,1,2,0.0,right,left,1.4259169579999873,5.0,50.0,45.0,0.72,1.0,2014_Nov_21_1228,172.222946386,169.934029428,0.863,MetaDots
3,3,Monolingual,1,3,1.0,left,left,1.6874412660000075,6.0,44.0,50.0,0.76,0.813,2014_Nov_21_1228,174.910387652,172.222946386,1.0,MetaDots
3,4,Monolingual,1,4,1.0,right,right,1.507150128999984,6.0,56.0,50.0,0.84,0.9229999999999999,2014_Nov_21_1228,177.23053778099998,174.910387652,0.813,MetaDots
3,5,Monolingual,1,5,1.0,left,left,1.3391422740000127,5.0,50.0,55.0,1.0,1.39,2014_Nov_21_1228,179.492680055,177.23053778099998,0.9229999999999999,MetaDots
3,6,Monolingual,1,6,1.0,left,left,1.547313680000017,5.0,45.0,50.0,0.84,1.079,2014_Nov_21_1228,182.429993735,179.492680055,1.39,MetaDots
3,7,Monolingual,1,7,1.0,left,left,1.8333441249999758,4.0,46.0,50.0,0.74,1.08,2014_Nov_21_1228,185.34233786,182.429993735,1.079,MetaDots
3,8,Monolingual,1,8,1.0,left,left,1.7165162730000088,4.0,46.0,50.0,0.82,1.202,2014_Nov_21_1228,188.138854133,185.34233786,1.08,MetaDots
3,9,Monolingual,1,9,0.0,right,left,1.6957693479999971,3.0,50.0,47.0,0.86,1.328,2014_Nov_21_1228,191.036623481,188.138854133,1.202,MetaDots
3,10,Monolingual,1,10,0.0,right,left,1.9790971520000114,4.0,54.0,50.0,0.26,0.6709999999999999,2014_Nov_21_1228,194.343720633,191.036623481,1.328,MetaDots
3,11,Monolingual,1,11,0.0,right,left,2.1722468029999713,5.0,50.0,45.0,0.62,1.7469999999999999,2014_Nov_21_1228,197.18696743599997,194.343720633,0.6709999999999999,MetaDots
3,12,Monolingual,1,12,1.0,right,right,1.6806342650000232,6.0,50.0,44.0,0.78,1.036,2014_Nov_21_1228,200.614601701,197.18696743599997,1.7469999999999999,MetaDots
3,13,Monolingual,1,13,1.0,left,left,1.8501897749999912,6.0,50.0,56.0,0.7,1.315,2014_Nov_21_1228,203.500791476,200.614601701,1.036,MetaDots
3,14,Monolingual,1,14,0.0,right,left,1.508664478000012,5.0,50.0,45.0,0.8,1.246,2014_Nov_21_1228,206.324455954,203.500791476,1.315,MetaDots
3,15,Monolingual,1,15,1.0,right,right,1.39020429300002,6.0,56.0,50.0,1.0,1.077,2014_Nov_21_1228,208.96066024700002,206.324455954,1.246,MetaDots
3,16,Monolingual,1,16,1.0,left,left,2.089880923999969,6.0,50.0,56.0,0.68,1.016,2014_Nov_21_1228,212.127541171,208.96066024700002,1.077,MetaDots
3,17,Monolingual,1,17,1.0,left,left,1.640107784999989,5.0,50.0,55.0,1.0,0.8590000000000001,2014_Nov_21_1228,214.78364895599998,212.127541171,1.016,MetaDots
3,18,Monolingual,1,18,1.0,left,left,1.8044871230000386,5.0,45.0,50.0,1.0,0.941,2014_Nov_21_1228,217.44713607900002,214.78364895599998,0.8590000000000001,MetaDots
3,19,Monolingual,1,19,1.0,left,left,1.4769733289999776,4.0,46.0,50.0,1.0,0.8420000000000001,2014_Nov_21_1228,219.865109408,217.44713607900002,0.941,MetaDots
3,20,Monolingual,1,20,1.0,left,left,1.607081552999985,4.0,50.0,54.0,0.86,0.9209999999999999,2014_Nov_21_1228,222.31419096099998,219.865109408,0.8420000000000001,MetaDots
3,21,Monolingual,1,21,1.0,left,left,1.6218980960000162,3.0,47.0,50.0,0.7,0.66,2014_Nov_21_1228,224.857089057,222.31419096099998,0.9209999999999999,MetaDots
3,22,Monolingual,1,22,1.0,right,right,1.4146627320000071,3.0,50.0,47.0,1.0,0.9179999999999999,2014_Nov_21_1228,226.931751789,224.857089057,0.66,MetaDots
3,23,Monolingual,1,23,0.0,right,left,1.6449133360000083,2.0,50.0,48.0,0.78,1.9340000000000002,2014_Nov_21_1228,229.494665125,226.931751789,0.9179999999999999,MetaDots
3,24,Monolingual,1,24,0.0,right,left,1.1659961279999864,3.0,50.0,47.0,0.74,0.561,2014_Nov_21_1228,232.594661253,229.494665125,1.9340000000000002,MetaDots
3,25,Monolingual,1,25,0.0,right,left,1.2329319870000077,4.0,54.0,50.0,1.0,1.141,2014_Nov_21_1228,234.38859324,232.594661253,0.561,MetaDots
3,26,Monolingual,2,1,1.0,left,left,3.5389787764500213,5.0,50.0,55.0,0.96,0.799,2014_Nov_21_1228,242.68778882900003,234.38859324,1.141,MetaDots
3,27,Monolingual,2,2,0.0,right,left,2.6681077639999624,5.0,50.0,45.0,0.36,0.956,2014_Nov_21_1228,246.154896593,242.68778882900003,0.799,MetaDots
3,28,Monolingual,2,3,0.0,left,right,3.100255962000023,6.0,50.0,56.0,0.24,0.7979999999999999,2014_Nov_21_1228,250.211152555,246.154896593,0.956,MetaDots
3,29,Monolingual,2,4,1.0,right,right,1.9588025589999933,7.0,50.0,43.0,0.28,0.642,2014_Nov_21_1228,252.967955114,250.211152555,0.7979999999999999,MetaDots
3,30,Monolingual,2,5,0.0,right,left,1.3861394200000023,7.0,50.0,43.0,0.8,0.591,2014_Nov_21_1228,254.996094534,252.967955114,0.642,MetaDots
3,31,Monolingual,2,6,1.0,left,left,1.998469362999978,8.0,50.0,58.0,0.7,0.607,2014_Nov_21_1228,257.585563897,254.996094534,0.591,MetaDots
3,32,Monolingual,2,7,1.0,right,right,2.0450197380000352,8.0,58.0,50.0,0.2,0.628,2014_Nov_21_1228,260.237583635,257.585563897,0.607,MetaDots
3,33,Monolingual,2,8,1.0,right,right,2.195517532999972,7.0,50.0,43.0,0.72,0.5660000000000001,2014_Nov_21_1228,263.061101168,260.237583635,0.628,MetaDots
3,34,Monolingual,2,9,0.0,left,right,1.836889086000016,7.0,43.0,50.0,0.66,0.7859999999999999,2014_Nov_21_1228,265.463990254,263.061101168,0.5660000000000001,MetaDots
3,35,Monolingual,2,10,1.0,right,right,2.052790954999979,8.0,50.0,42.0,0.24,0.519,2014_Nov_21_1228,268.302781209,265.463990254,0.7859999999999999,MetaDots
3,36,Monolingual,2,11,1.0,right,right,1.3061070850000132,8.0,58.0,50.0,0.94,0.725,2014_Nov_21_1228,270.127888294,268.302781209,0.519,MetaDots
3,37,Monolingual,2,12,1.0,right,right,1.646200122999994,7.0,50.0,43.0,0.74,0.922,2014_Nov_21_1228,272.499088417,270.127888294,0.725,MetaDots
3,38,Monolingual,2,13,1.0,left,left,1.4648277070000089,7.0,50.0,57.0,0.1,1.125,2014_Nov_21_1228,274.885916124,272.499088417,0.922,MetaDots
3,39,Monolingual,2,14,0.0,right,left,2.8529917710000063,6.0,56.0,50.0,0.24,0.782,2014_Nov_21_1228,278.863907895,274.885916124,1.125,MetaDots
3,40,Monolingual,2,15,1.0,right,right,1.8744021140000022,7.0,57.0,50.0,0.9,0.813,2014_Nov_21_1228,281.520310009,278.863907895,0.782,MetaDots
3,41,Monolingual,2,16,1.0,left,left,1.9905185709999837,7.0,43.0,50.0,0.14,0.722,2014_Nov_21_1228,284.32382858,281.520310009,0.813,MetaDots
3,42,Monolingual,2,17,1.0,left,left,1.38794479499999,6.0,50.0,56.0,0.16,0.612,2014_Nov_21_1228,286.433773375,284.32382858,0.722,MetaDots
3,43,Monolingual,2,18,0.0,left,right,2.7068043119999974,6.0,44.0,50.0,0.76,0.7509999999999999,2014_Nov_21_1228,289.752577687,286.433773375,0.612,MetaDots
3,44,Monolingual,2,19,0.0,left,right,2.3690544839999794,7.0,50.0,57.0,0.64,0.7509999999999999,2014_Nov_21_1228,292.87263217099996,289.752577687,0.7509999999999999,MetaDots
3,45,Monolingual,2,20,1.0,right,right,2.139212269000017,8.0,58.0,50.0,0.64,1.064,2014_Nov_21_1228,295.76284444,292.87263217099996,0.7509999999999999,MetaDots
3,46,Monolingual,2,21,0.0,right,left,1.6465603770000357,8.0,58.0,50.0,0.26,0.7509999999999999,2014_Nov_21_1228,298.473404817,295.76284444,1.064,MetaDots
3,47,Monolingual,2,22,1.0,left,left,2.321733095999979,9.0,50.0,59.0,0.72,0.7709999999999999,2014_Nov_21_1228,301.546137913,298.473404817,0.7509999999999999,MetaDots
3,48,Monolingual,2,23,1.0,left,left,3.472106370000021,9.0,41.0,50.0,0.3,0.657,2014_Nov_21_1228,305.789244283,301.546137913,0.7709999999999999,MetaDots
3,49,Monolingual,2,24,1.0,right,right,1.7650684149999556,8.0,50.0,42.0,0.78,0.691,2014_Nov_21_1228,308.211312698,305.789244283,0.657,MetaDots
3,50,Monolingual,2,25,1.0,left,left,2.0085518630000108,8.0,50.0,58.0,0.7,0.77,2014_Nov_21_1228,310.910864561,308.211312698,0.691,MetaDots
3,51,Monolingual,3,1,0.0,right,left,3.972705132730024,7.0,57.0,50.0,0.72,0.598,2014_Nov_21_1228,324.576254043,310.910864561,0.77,MetaDots
3,52,Monolingual,3,2,1.0,right,right,1.2225579670000135,8.0,58.0,50.0,0.88,0.816,2014_Nov_21_1228,326.39681201,324.576254043,0.598,MetaDots
3,53,Monolingual,3,3,1.0,left,left,3.6611360609999535,8.0,42.0,50.0,0.16,0.61,2014_Nov_21_1228,330.873948071,326.39681201,0.816,MetaDots
3,54,Monolingual,3,4,1.0,right,right,1.828644979000003,7.0,57.0,50.0,0.78,0.563,2014_Nov_21_1228,333.31259305,330.873948071,0.61,MetaDots
3,55,Monolingual,3,5,1.0,left,left,2.0995887390000574,7.0,43.0,50.0,0.18,0.594,2014_Nov_21_1228,335.97518178900003,333.31259305,0.563,MetaDots
3,56,Monolingual,3,6,1.0,left,left,1.9023959009999714,6.0,50.0,56.0,0.72,0.9079999999999999,2014_Nov_21_1228,338.47157769,335.97518178900003,0.594,MetaDots
3,57,Monolingual,3,7,1.0,left,left,1.0924478729999847,6.0,44.0,50.0,0.94,0.833,2014_Nov_21_1228,340.472025563,338.47157769,0.9079999999999999,MetaDots
3,58,Monolingual,3,8,1.0,right,right,1.928863343000016,5.0,50.0,45.0,0.66,0.6890000000000001,2014_Nov_21_1228,343.233888906,340.472025563,0.833,MetaDots
3,59,Monolingual,3,9,1.0,left,left,2.0714488939999782,5.0,45.0,50.0,0.28,0.86,2014_Nov_21_1228,345.9943378,343.233888906,0.6890000000000001,MetaDots
3,60,Monolingual,3,10,1.0,right,right,1.6628753769999913,4.0,50.0,46.0,0.66,0.722,2014_Nov_21_1228,348.517213177,345.9943378,0.86,MetaDots
3,61,Monolingual,3,11,1.0,left,left,2.0549528649999984,4.0,46.0,50.0,0.3,0.9129999999999999,2014_Nov_21_1228,351.294166042,348.517213177,0.722,MetaDots
3,62,Monolingual,3,12,1.0,left,left,1.6650450930000145,3.0,47.0,50.0,0.98,0.8740000000000001,2014_Nov_21_1228,353.872211135,351.294166042,0.9129999999999999,MetaDots
3,63,Monolingual,3,13,1.0,left,left,2.5383929600000337,3.0,47.0,50.0,0.7,0.816,2014_Nov_21_1228,357.284604095,353.872211135,0.8740000000000001,MetaDots
3,64,Monolingual,3,14,1.0,left,left,2.043016933000021,2.0,48.0,50.0,0.32,0.769,2014_Nov_21_1228,360.14362102800004,357.284604095,0.816,MetaDots
3,65,Monolingual,3,15,1.0,left,left,2.3352210009999848,2.0,50.0,52.0,0.32,0.971,2014_Nov_21_1228,363.247842029,360.14362102800004,0.769,MetaDots
3,66,Monolingual,3,16,0.0,left,right,2.195786774000002,1.0,50.0,51.0,0.68,0.6729999999999999,2014_Nov_21_1228,366.414628803,363.247842029,0.971,MetaDots
3,67,Monolingual,3,17,1.0,right,right,4.299352447999981,2.0,52.0,50.0,0.24,0.6729999999999999,2014_Nov_21_1228,371.386981251,366.414628803,0.6729999999999999,MetaDots
3,68,Monolingual,3,18,1.0,left,left,3.8197275699999995,2.0,48.0,50.0,0.0,0.8290000000000001,2014_Nov_21_1228,375.879708821,371.386981251,0.6729999999999999,MetaDots
3,69,Monolingual,3,19,0.0,left,right,4.089608620999976,1.0,49.0,50.0,0.0,1.376,2014_Nov_21_1228,380.798317442,375.879708821,0.8290000000000001,MetaDots
3,70,Monolingual,3,20,1.0,left,left,3.14723217899999,2.0,50.0,52.0,0.72,0.457,2014_Nov_21_1228,385.321549621,380.798317442,1.376,MetaDots
3,71,Monolingual,3,21,1.0,right,right,3.6730018310000156,2.0,50.0,48.0,0.66,1.705,2014_Nov_21_1228,389.451551452,385.321549621,0.457,MetaDots
3,72,Monolingual,3,22,0.0,right,left,2.2307650430000034,1.0,51.0,50.0,0.7,0.785,2014_Nov_21_1228,393.387316495,389.451551452,1.705,MetaDots
3,73,Monolingual,3,23,1.0,left,left,4.035495493999999,2.0,48.0,50.0,0.66,0.637,2014_Nov_21_1228,398.207811989,393.387316495,0.785,MetaDots
3,74,Monolingual,3,24,1.0,left,left,2.8419680270000076,2.0,50.0,52.0,0.72,1.7180000000000002,2014_Nov_21_1228,401.686780016,398.207811989,0.637,MetaDots
3,75,Monolingual,3,25,1.0,right,right,2.197038399000025,1.0,51.0,50.0,0.72,0.5479999999999999,2014_Nov_21_1228,405.601818415,401.686780016,1.7180000000000002,MetaDots
3,76,Monolingual,4,1,0.0,right,left,3.899402251499966,1.0,51.0,50.0,0.86,0.74,2014_Nov_21_1228,418.675424379,405.601818415,0.5479999999999999,MetaDots
3,77,Monolingual,4,2,0.0,right,left,2.437064525000048,2.0,50.0,48.0,0.22,0.535,2014_Nov_21_1228,421.85248890400004,418.675424379,0.74,MetaDots
3,78,Monolingual,4,3,1.0,left,left,3.166390429000014,3.0,47.0,50.0,0.64,0.982,2014_Nov_21_1228,425.55387933300005,421.85248890400004,0.535,MetaDots
3,79,Monolingual,4,4,1.0,right,right,2.325164024999963,3.0,50.0,47.0,0.8,1.138,2014_Nov_21_1228,428.861043358,425.55387933300005,0.982,MetaDots
3,80,Monolingual,4,5,0.0,right,left,1.9466923500000117,2.0,50.0,48.0,0.76,1.276,2014_Nov_21_1228,431.94573570800003,428.861043358,1.138,MetaDots
3,81,Monolingual,4,6,1.0,left,left,1.1928438200000178,3.0,50.0,53.0,0.8,1.063,2014_Nov_21_1228,434.41457952800005,431.94573570800003,1.276,MetaDots
3,82,Monolingual,4,7,0.0,left,right,3.570349434999957,3.0,47.0,50.0,0.76,1.018,2014_Nov_21_1228,439.047928963,434.41457952800005,1.063,MetaDots
3,83,Monolingual,4,8,0.0,right,left,2.7373172770000176,4.0,54.0,50.0,0.68,1.167,2014_Nov_21_1228,442.80324624,439.047928963,1.018,MetaDots
3,84,Monolingual,4,9,1.0,left,left,2.935702281999939,5.0,45.0,50.0,0.2,0.922,2014_Nov_21_1228,446.90594852199996,442.80324624,1.167,MetaDots
3,85,Monolingual,4,10,1.0,right,right,1.761222553000064,5.0,55.0,50.0,0.0,0.912,2014_Nov_21_1228,449.589171075,446.90594852199996,0.922,MetaDots
3,86,Monolingual,4,11,0.0,left,right,1.8378468959999514,4.0,50.0,54.0,0.0,0.878,2014_Nov_21_1228,452.339017971,449.589171075,0.912,MetaDots
3,87,Monolingual,4,12,1.0,left,left,3.6614229049999807,5.0,50.0,55.0,0.22,0.61,2014_Nov_21_1228,456.87844087599996,452.339017971,0.878,MetaDots
3,88,Monolingual,4,13,1.0,left,left,3.8204042109999956,5.0,50.0,55.0,0.64,0.985,2014_Nov_21_1228,461.30884508699995,456.87844087599996,0.61,MetaDots
3,89,Monolingual,4,14,0.0,left,right,2.2399978880000755,4.0,50.0,54.0,0.7,0.938,2014_Nov_21_1228,464.533842975,461.30884508699995,0.985,MetaDots
3,90,Monolingual,4,15,1.0,left,left,2.997839395999949,5.0,45.0,50.0,0.76,1.014,2014_Nov_21_1228,468.469682371,464.533842975,0.938,MetaDots
3,91,Monolingual,4,16,1.0,right,right,2.246336704999986,5.0,55.0,50.0,0.06,0.8440000000000001,2014_Nov_21_1228,471.73001907599996,468.469682371,1.014,MetaDots
3,92,Monolingual,4,17,1.0,right,right,1.4445240800000019,4.0,54.0,50.0,1.0,0.922,2014_Nov_21_1228,474.01854315599996,471.73001907599996,0.8440000000000001,MetaDots
3,93,Monolingual,4,18,1.0,left,left,1.7145065410000169,4.0,46.0,50.0,0.12,0.563,2014_Nov_21_1228,476.655049697,474.01854315599996,0.922,MetaDots
3,94,Monolingual,4,19,0.0,left,right,2.0889387870000062,3.0,50.0,53.0,0.26,0.985,2014_Nov_21_1228,479.306988484,476.655049697,0.563,MetaDots
3,95,Monolingual,4,20,0.0,left,right,3.277889754000071,4.0,46.0,50.0,0.26,1.185,2014_Nov_21_1228,483.56987823800006,479.306988484,0.985,MetaDots
3,96,Monolingual,4,21,1.0,left,left,2.4347720339999364,5.0,45.0,50.0,0.14,1.127,2014_Nov_21_1228,487.189650272,483.56987823800006,1.185,MetaDots
3,97,Monolingual,4,22,0.0,right,left,3.345444398999983,5.0,55.0,50.0,0.14,1.114,2014_Nov_21_1228,491.662094671,487.189650272,1.127,MetaDots
3,98,Monolingual,4,23,1.0,right,right,1.7293097170000677,6.0,50.0,44.0,0.72,1.421,2014_Nov_21_1228,494.50540438800004,491.662094671,1.114,MetaDots
3,99,Monolingual,4,24,1.0,left,left,3.7268159829999297,6.0,44.0,50.0,0.72,0.575,2014_Nov_21_1228,499.653220371,494.50540438800004,1.421,MetaDots
3,100,Monolingual,4,25,0.0,right,left,1.9690648530000658,5.0,50.0,45.0,0.08,0.7490000000000001,2014_Nov_21_1228,502.19728522400004,499.653220371,0.575,MetaDots
3,101,Monolingual,5,1,0.0,right,left,6.264798257964919,6.0,50.0,44.0,0.6,2.076,2014_Nov_21_1228,509.54393814599996,502.19728522400004,0.7490000000000001,MetaDots
3,102,Monolingual,5,2,0.0,right,left,2.1158777560000535,7.0,50.0,43.0,0.76,0.5660000000000001,2014_Nov_21_1228,513.735815902,509.54393814599996,2.076,MetaDots
3,103,Monolingual,5,3,1.0,left,left,1.9768563010000288,8.0,42.0,50.0,0.72,1.11,2014_Nov_21_1228,516.278672203,513.735815902,0.5660000000000001,MetaDots
3,104,Monolingual,5,4,1.0,left,left,1.4523105999999324,8.0,42.0,50.0,0.74,0.8140000000000001,2014_Nov_21_1228,518.840982803,516.278672203,1.11,MetaDots
3,105,Monolingual,5,5,1.0,left,left,1.447970691999977,7.0,43.0,50.0,0.84,0.561,2014_Nov_21_1228,521.102953495,518.840982803,0.8140000000000001,MetaDots
3,106,Monolingual,5,6,1.0,left,left,1.280610177000007,7.0,43.0,50.0,0.98,0.691,2014_Nov_21_1228,522.944563672,521.102953495,0.561,MetaDots
3,107,Monolingual,5,7,0.0,right,left,2.5218380160000917,6.0,56.0,50.0,0.16,0.47,2014_Nov_21_1228,526.157401688,522.944563672,0.691,MetaDots
3,108,Monolingual,5,8,1.0,left,left,1.4917302139998856,7.0,43.0,50.0,0.12,0.5670000000000001,2014_Nov_21_1228,528.1191319019999,526.157401688,0.47,MetaDots
3,109,Monolingual,5,9,1.0,left,left,2.3704588640000637,7.0,50.0,57.0,0.82,0.444,2014_Nov_21_1228,531.056590766,528.1191319019999,0.5670000000000001,MetaDots
3,110,Monolingual,5,10,1.0,left,left,1.6104737100000248,6.0,50.0,56.0,0.18,0.47200000000000003,2014_Nov_21_1228,533.111064476,531.056590766,0.444,MetaDots
3,111,Monolingual,5,11,0.0,right,left,1.2948154589999858,6.0,56.0,50.0,0.24,0.517,2014_Nov_21_1228,534.877879935,533.111064476,0.47200000000000003,MetaDots
3,112,Monolingual,5,12,1.0,left,left,1.9593591040000393,7.0,43.0,50.0,0.76,0.425,2014_Nov_21_1228,537.354239039,534.877879935,0.517,MetaDots
3,113,Monolingual,5,13,1.0,right,right,1.602899204999926,7.0,50.0,43.0,0.7,0.424,2014_Nov_21_1228,539.382138244,537.354239039,0.425,MetaDots
3,114,Monolingual,5,14,1.0,right,right,2.8364735310000024,6.0,50.0,44.0,0.18,1.0959999999999999,2014_Nov_21_1228,542.642611775,539.382138244,0.424,MetaDots
3,115,Monolingual,5,15,1.0,left,left,1.5870764880000972,6.0,44.0,50.0,0.82,0.675,2014_Nov_21_1228,545.3256882630001,542.642611775,1.0959999999999999,MetaDots
3,116,Monolingual,5,16,1.0,right,right,1.6338560859999915,5.0,50.0,45.0,0.8,1.515,2014_Nov_21_1228,547.6345443490001,545.3256882630001,0.675,MetaDots
3,117,Monolingual,5,17,0.0,right,left,3.6796780600000014,5.0,55.0,50.0,0.64,1.068,2014_Nov_21_1228,552.8292224090001,547.6345443490001,1.515,MetaDots
3,118,Monolingual,5,18,1.0,left,left,2.3640663549999608,6.0,44.0,50.0,0.0,0.718,2014_Nov_21_1228,556.261288764,552.8292224090001,1.068,MetaDots
3,119,Monolingual,5,19,1.0,right,right,1.8403862159999171,6.0,50.0,44.0,0.18,0.91,2014_Nov_21_1228,558.81967498,556.261288764,0.718,MetaDots
3,120,Monolingual,5,20,1.0,right,right,1.5859607880000475,5.0,55.0,50.0,0.64,0.537,2014_Nov_21_1228,561.315635768,558.81967498,0.91,MetaDots
3,121,Monolingual,5,21,1.0,left,left,1.885009901000024,5.0,45.0,50.0,0.1,1.032,2014_Nov_21_1228,563.737645669,561.315635768,0.537,MetaDots
3,122,Monolingual,5,22,1.0,left,left,3.6126597569999994,4.0,50.0,54.0,0.66,0.706,2014_Nov_21_1228,568.382305426,563.737645669,1.032,MetaDots
3,123,Monolingual,5,23,1.0,left,left,3.7867834449999864,4.0,50.0,54.0,0.0,1.094,2014_Nov_21_1228,572.875088871,568.382305426,0.706,MetaDots
3,124,Monolingual,5,24,1.0,right,right,2.6813721120000134,3.0,50.0,47.0,0.0,1.7519999999999998,2014_Nov_21_1228,576.650460983,572.875088871,1.094,MetaDots
3,125,Monolingual,5,25,1.0,left,left,2.4172887890000068,3.0,50.0,53.0,0.7,0.48200000000000004,2014_Nov_21_1228,580.819749772,576.650460983,1.7519999999999998,MetaDots
3,126,Monolingual,6,1,0.0,left,right,4.756382590569987,2.0,48.0,50.0,0.38,2.266,2014_Nov_21_1228,587.445486694,580.819749772,0.48200000000000004,MetaDots
3,127,Monolingual,6,2,1.0,left,left,2.1850604639999656,3.0,47.0,50.0,0.32,1.328,2014_Nov_21_1228,591.896547158,587.445486694,2.266,MetaDots
3,128,Monolingual,6,3,1.0,left,left,2.0989422180000217,3.0,50.0,53.0,0.7,0.657,2014_Nov_21_1228,595.323489376,591.896547158,1.328,MetaDots
3,129,Monolingual,6,4,1.0,left,left,1.998771221000009,2.0,48.0,50.0,0.7,0.6859999999999999,2014_Nov_21_1228,597.979260597,595.323489376,0.657,MetaDots
3,130,Monolingual,6,5,0.0,right,left,1.8104552949999189,2.0,50.0,48.0,0.26,1.187,2014_Nov_21_1228,600.4757158919999,597.979260597,0.6859999999999999,MetaDots
3,131,Monolingual,6,6,1.0,left,left,2.1469171520001398,3.0,50.0,53.0,0.72,0.907,2014_Nov_21_1228,603.8096330440001,600.4757158919999,1.187,MetaDots
3,132,Monolingual,6,7,1.0,left,left,2.1534029619998982,3.0,47.0,50.0,0.16,0.818,2014_Nov_21_1228,606.870036006,603.8096330440001,0.907,MetaDots
3,133,Monolingual,6,8,1.0,left,left,1.8516363520001113,2.0,48.0,50.0,0.14,0.562,2014_Nov_21_1228,609.5396723580001,606.870036006,0.818,MetaDots
3,134,Monolingual,6,9,1.0,right,right,2.2609213959999694,2.0,52.0,50.0,0.64,0.547,2014_Nov_21_1228,612.362593754,609.5396723580001,0.562,MetaDots
3,135,Monolingual,6,10,0.0,right,left,2.7134717709999703,1.0,51.0,50.0,0.26,0.7509999999999999,2014_Nov_21_1228,615.623065525,612.362593754,0.547,MetaDots
3,136,Monolingual,6,11,1.0,right,right,2.4934816639999773,2.0,50.0,48.0,0.72,0.953,2014_Nov_21_1228,618.867547189,615.623065525,0.7509999999999999,MetaDots
3,137,Monolingual,6,12,1.0,left,left,1.558739276999947,2.0,48.0,50.0,0.7,0.516,2014_Nov_21_1228,621.3792864659999,618.867547189,0.953,MetaDots
3,138,Monolingual,6,13,0.0,left,right,2.9162247390000484,1.0,49.0,50.0,0.24,0.875,2014_Nov_21_1228,624.811511205,621.3792864659999,0.516,MetaDots
3,139,Monolingual,6,14,1.0,left,left,2.666411493000055,2.0,50.0,52.0,0.74,0.735,2014_Nov_21_1228,628.352922698,624.811511205,0.875,MetaDots
3,140,Monolingual,6,15,0.0,left,right,2.4583621599999925,2.0,48.0,50.0,0.06,0.823,2014_Nov_21_1228,631.546284858,628.352922698,0.735,MetaDots
3,141,Monolingual,6,16,0.0,right,left,2.847289681999975,3.0,53.0,50.0,0.28,0.612,2014_Nov_21_1228,635.21657454,631.546284858,0.823,MetaDots
3,142,Monolingual,6,17,1.0,left,left,2.9249754439999496,4.0,46.0,50.0,0.12,0.6940000000000001,2014_Nov_21_1228,638.753549984,635.21657454,0.612,MetaDots
3,143,Monolingual,6,18,1.0,right,right,2.493034309000069,4.0,50.0,46.0,0.76,0.677,2014_Nov_21_1228,641.940584293,638.753549984,0.6940000000000001,MetaDots
3,144,Monolingual,6,19,1.0,left,left,2.4539860059999437,3.0,47.0,50.0,0.36,0.985,2014_Nov_21_1228,645.071570299,641.940584293,0.677,MetaDots
3,145,Monolingual,6,20,0.0,left,right,1.9476915300000566,3.0,50.0,53.0,0.26,0.546,2014_Nov_21_1228,648.004261829,645.071570299,0.985,MetaDots
3,146,Monolingual,6,21,1.0,right,right,1.7358090700000084,4.0,54.0,50.0,0.12,0.657,2014_Nov_21_1228,650.286070899,648.004261829,0.546,MetaDots
3,147,Monolingual,6,22,1.0,right,right,3.893893369999926,4.0,50.0,46.0,0.66,1.797,2014_Nov_21_1228,654.836964269,650.286070899,0.657,MetaDots
3,148,Monolingual,6,23,1.0,left,left,1.3433706520000015,3.0,50.0,53.0,0.82,0.491,2014_Nov_21_1228,657.977334921,654.836964269,1.797,MetaDots
3,149,Monolingual,6,24,1.0,left,left,1.563461831000026,3.0,50.0,53.0,0.86,0.9209999999999999,2014_Nov_21_1228,660.031796752,657.977334921,0.491,MetaDots
3,150,Monolingual,6,25,0.0,right,left,1.267642339000012,2.0,52.0,50.0,0.86,0.6559999999999999,2014_Nov_21_1228,662.220439091,660.031796752,0.9209999999999999,MetaDots
3,151,Monolingual,7,1,1.0,left,left,3.8016492059480402,3.0,50.0,53.0,0.76,0.8,2014_Nov_21_1228,667.28578229,662.220439091,0.6559999999999999,MetaDots
3,152,Monolingual,7,2,0.0,right,left,3.041795396999942,3.0,50.0,47.0,0.7,0.546,2014_Nov_21_1228,671.127577687,667.28578229,0.8,MetaDots
3,153,Monolingual,7,3,1.0,left,left,2.0237414130000877,4.0,50.0,54.0,0.72,0.909,2014_Nov_21_1228,673.6973191000001,671.127577687,0.546,MetaDots
3,154,Monolingual,7,4,0.0,right,left,2.632166439999984,4.0,54.0,50.0,0.26,0.568,2014_Nov_21_1228,677.23848554,673.6973191000001,0.909,MetaDots
3,155,Monolingual,7,5,1.0,right,right,1.948591961999893,5.0,50.0,45.0,0.32,0.69,2014_Nov_21_1228,679.755077502,677.23848554,0.568,MetaDots
3,156,Monolingual,7,6,1.0,right,right,3.0376688460000287,5.0,50.0,45.0,0.68,0.657,2014_Nov_21_1228,683.482746348,679.755077502,0.69,MetaDots
3,157,Monolingual,7,7,1.0,right,right,1.5383133520000847,4.0,54.0,50.0,0.92,0.769,2014_Nov_21_1228,685.6780597000001,683.482746348,0.657,MetaDots
3,158,Monolingual,7,8,1.0,left,left,1.9297168319999454,4.0,46.0,50.0,0.9,0.591,2014_Nov_21_1228,688.376776532,685.6780597000001,0.769,MetaDots
3,159,Monolingual,7,9,1.0,left,left,1.9985569140000135,3.0,50.0,53.0,0.86,0.49700000000000005,2014_Nov_21_1228,690.966333446,688.376776532,0.591,MetaDots
3,160,Monolingual,7,10,1.0,left,left,4.561316702999946,3.0,47.0,50.0,0.26,1.546,2014_Nov_21_1228,696.024650149,690.966333446,0.49700000000000005,MetaDots
3,161,Monolingual,7,11,0.0,right,left,2.7089714729999548,2.0,52.0,50.0,0.7,0.41,2014_Nov_21_1228,700.2796216219999,696.024650149,1.546,MetaDots
3,162,Monolingual,7,12,1.0,left,left,1.9494890030000216,3.0,47.0,50.0,0.7,0.423,2014_Nov_21_1228,702.639110625,700.2796216219999,0.41,MetaDots
3,163,Monolingual,7,13,0.0,right,left,1.6322238310001485,3.0,50.0,47.0,0.0,0.7040000000000001,2014_Nov_21_1228,704.6943344560001,702.639110625,0.423,MetaDots
3,164,Monolingual,7,14,1.0,right,right,1.9322469689998987,4.0,54.0,50.0,0.0,0.938,2014_Nov_21_1228,707.330581425,704.6943344560001,0.7040000000000001,MetaDots
3,165,Monolingual,7,15,0.0,right,left,2.9309022460000618,4.0,50.0,46.0,0.24,0.847,2014_Nov_21_1228,711.199483671,707.330581425,0.938,MetaDots
3,166,Monolingual,7,16,1.0,right,right,3.630191055999924,5.0,55.0,50.0,0.74,0.564,2014_Nov_21_1228,715.676674727,711.199483671,0.847,MetaDots
3,167,Monolingual,7,17,0.0,right,left,1.9319937840001202,5.0,55.0,50.0,0.76,0.439,2014_Nov_21_1228,718.1726685110001,715.676674727,0.564,MetaDots
3,168,Monolingual,7,18,1.0,left,left,1.5162180229998157,6.0,50.0,56.0,0.0,0.7559999999999999,2014_Nov_21_1228,720.1278865339999,718.1726685110001,0.439,MetaDots
3,169,Monolingual,7,19,1.0,left,left,2.081832737000099,6.0,44.0,50.0,1.0,0.782,2014_Nov_21_1228,722.965719271,720.1278865339999,0.7559999999999999,MetaDots
3,170,Monolingual,7,20,1.0,left,left,3.5351760449999965,5.0,50.0,55.0,0.8,0.451,2014_Nov_21_1228,727.282895316,722.965719271,0.782,MetaDots
3,171,Monolingual,7,21,1.0,right,right,2.0177743069999896,5.0,50.0,45.0,0.84,0.657,2014_Nov_21_1228,729.751669623,727.282895316,0.451,MetaDots
3,172,Monolingual,7,22,1.0,left,left,2.5369151809999657,4.0,46.0,50.0,0.8,0.654,2014_Nov_21_1228,732.945584804,729.751669623,0.657,MetaDots
3,173,Monolingual,7,23,0.0,right,left,2.2831271390000403,4.0,50.0,46.0,0.8,0.597,2014_Nov_21_1228,735.882711943,732.945584804,0.654,MetaDots
3,174,Monolingual,7,24,0.0,right,left,4.348245160000014,5.0,55.0,50.0,0.74,0.408,2014_Nov_21_1228,740.827957103,735.882711943,0.597,MetaDots
3,175,Monolingual,7,25,1.0,left,left,1.5064809780000288,6.0,50.0,56.0,0.9,0.61,2014_Nov_21_1228,742.742438081,740.827957103,0.408,MetaDots
3,176,Monolingual,8,1,1.0,left,left,3.4447724379898492,6.0,44.0,50.0,0.98,0.74,2014_Nov_21_1228,753.6467666939999,742.742438081,0.61,MetaDots
3,177,Monolingual,8,2,0.0,right,left,2.1302823800000485,5.0,55.0,50.0,0.98,0.628,2014_Nov_21_1228,756.5170490739999,753.6467666939999,0.74,MetaDots
3,178,Monolingual,8,3,0.0,right,left,2.933247673000025,6.0,50.0,44.0,0.7,0.426,2014_Nov_21_1228,760.078296747,756.5170490739999,0.628,MetaDots
3,179,Monolingual,8,4,1.0,left,left,1.9299790550000344,7.0,50.0,57.0,0.74,0.435,2014_Nov_21_1228,762.434275802,760.078296747,0.426,MetaDots
3,180,Monolingual,8,5,1.0,left,left,1.993718310000022,7.0,50.0,57.0,0.74,0.7040000000000001,2014_Nov_21_1228,764.862994112,762.434275802,0.435,MetaDots
3,181,Monolingual,8,6,1.0,left,left,1.3435827199999228,6.0,44.0,50.0,0.84,0.9359999999999999,2014_Nov_21_1228,766.910576832,764.862994112,0.7040000000000001,MetaDots
3,182,Monolingual,8,7,1.0,right,right,2.4451971830000403,6.0,50.0,44.0,0.26,0.501,2014_Nov_21_1228,770.291774015,766.910576832,0.9359999999999999,MetaDots
3,183,Monolingual,8,8,1.0,left,left,1.6400692980000477,5.0,45.0,50.0,0.32,0.735,2014_Nov_21_1228,772.432843313,770.291774015,0.501,MetaDots
3,184,Monolingual,8,9,0.0,right,left,2.3655025150000166,5.0,50.0,45.0,0.22,0.7709999999999999,2014_Nov_21_1228,775.533345828,772.432843313,0.735,MetaDots
3,185,Monolingual,8,10,1.0,right,right,1.448483511999897,6.0,56.0,50.0,0.64,2.573,2014_Nov_21_1228,777.75282934,775.533345828,0.7709999999999999,MetaDots
3,186,Monolingual,8,11,0.0,right,left,2.200984500000097,6.0,50.0,44.0,0.6,1.0,2014_Nov_21_1228,782.52681384,777.75282934,2.573,MetaDots
3,187,Monolingual,8,12,1.0,right,right,2.01026015299999,7.0,57.0,50.0,0.68,0.722,2014_Nov_21_1228,785.537073993,782.52681384,1.0,MetaDots
3,188,Monolingual,8,13,0.0,left,right,2.6788336239999153,7.0,43.0,50.0,0.32,0.6729999999999999,2014_Nov_21_1228,788.937907617,785.537073993,0.722,MetaDots
3,189,Monolingual,8,14,1.0,right,right,1.569181587999994,8.0,50.0,42.0,0.26,0.61,2014_Nov_21_1228,791.180089205,788.937907617,0.6729999999999999,MetaDots
3,190,Monolingual,8,15,1.0,left,left,2.743915673000074,8.0,42.0,50.0,0.7,0.653,2014_Nov_21_1228,794.534004878,791.180089205,0.61,MetaDots
3,191,Monolingual,8,16,1.0,left,left,1.3948796889999557,7.0,43.0,50.0,1.0,0.726,2014_Nov_21_1228,796.581884567,794.534004878,0.653,MetaDots
3,192,Monolingual,8,17,1.0,left,left,1.7229156910000247,7.0,50.0,57.0,0.2,0.579,2014_Nov_21_1228,799.030800258,796.581884567,0.726,MetaDots
3,193,Monolingual,8,18,1.0,left,left,2.068983605000036,6.0,44.0,50.0,0.74,0.47,2014_Nov_21_1228,801.678783863,799.030800258,0.579,MetaDots
3,194,Monolingual,8,19,1.0,right,right,1.479952220999876,6.0,56.0,50.0,0.72,2.03,2014_Nov_21_1228,803.6287360839999,801.678783863,0.47,MetaDots
3,195,Monolingual,8,20,1.0,left,left,1.531049254000068,5.0,50.0,55.0,0.22,0.924,2014_Nov_21_1228,807.189785338,803.6287360839999,2.03,MetaDots
3,196,Monolingual,8,21,1.0,left,left,1.6468496559999504,5.0,45.0,50.0,0.84,0.517,2014_Nov_21_1228,809.7606349939999,807.189785338,0.924,MetaDots
3,197,Monolingual,8,22,1.0,left,left,1.9465445810000648,4.0,50.0,54.0,0.78,0.591,2014_Nov_21_1228,812.224179575,809.7606349939999,0.517,MetaDots
3,198,Monolingual,8,23,1.0,left,left,2.4667918389999466,4.0,50.0,54.0,0.9,0.626,2014_Nov_21_1228,815.2819714139999,812.224179575,0.591,MetaDots
3,199,Monolingual,8,24,1.0,left,left,2.8683668360000403,3.0,47.0,50.0,0.84,0.642,2014_Nov_21_1228,818.77633825,815.2819714139999,0.626,MetaDots
3,200,Monolingual,8,25,1.0,right,right,1.7602370750000165,3.0,50.0,47.0,0.94,1.3719999999999999,2014_Nov_21_1228,821.178575325,818.77633825,0.642,MetaDots
4,1,Monolingual,1,1,1.0,right,right,9.044562440000021,3.0,50.0,47.0,0.7,1.594,2014_Nov_21_1420,209.756248658,,,MetaDots
4,2,Monolingual,1,2,1.0,right,right,1.9204243119999884,3.0,50.0,47.0,0.62,0.971,2014_Nov_21_1420,213.27067297,209.756248658,1.594,MetaDots
4,3,Monolingual,1,3,1.0,left,left,3.1782326340000147,2.0,48.0,50.0,0.38,1.298,2014_Nov_21_1420,217.419905604,213.27067297,0.971,MetaDots
4,4,Monolingual,1,4,0.0,left,right,3.6898687249999984,2.0,50.0,52.0,0.58,2.166,2014_Nov_21_1420,222.407774329,217.419905604,1.298,MetaDots
4,5,Monolingual,1,5,1.0,left,left,1.973159460000002,3.0,50.0,53.0,0.5,1.141,2014_Nov_21_1420,226.546933789,222.407774329,2.166,MetaDots
4,6,Monolingual,1,6,1.0,left,left,2.333037910000021,3.0,50.0,53.0,0.7,1.615,2014_Nov_21_1420,230.02097169900003,226.546933789,1.141,MetaDots
4,7,Monolingual,1,7,0.0,left,right,2.991646023999957,2.0,48.0,50.0,0.6,1.3419999999999999,2014_Nov_21_1420,234.627617723,230.02097169900003,1.615,MetaDots
4,8,Monolingual,1,8,1.0,left,left,3.134490650000017,3.0,47.0,50.0,0.36,1.327,2014_Nov_21_1420,239.104108373,234.627617723,1.3419999999999999,MetaDots
4,9,Monolingual,1,9,1.0,right,right,4.678616884999995,3.0,50.0,47.0,0.26,2.654,2014_Nov_21_1420,245.109725258,239.104108373,1.327,MetaDots
4,10,Monolingual,1,10,0.0,left,right,2.8686919160000137,2.0,50.0,52.0,0.26,1.094,2014_Nov_21_1420,250.632417174,245.109725258,2.654,MetaDots
4,11,Monolingual,1,11,1.0,left,left,3.5192158489999708,3.0,50.0,53.0,0.7,1.535,2014_Nov_21_1420,255.24563302299998,250.632417174,1.094,MetaDots
4,12,Monolingual,1,12,1.0,right,right,2.494761527000005,3.0,50.0,47.0,0.66,1.235,2014_Nov_21_1420,259.27539455,255.24563302299998,1.535,MetaDots
4,13,Monolingual,1,13,1.0,right,right,4.5633684769999965,2.0,52.0,50.0,0.66,1.751,2014_Nov_21_1420,265.073763027,259.27539455,1.235,MetaDots
4,14,Monolingual,1,14,1.0,left,left,3.5838507329999962,2.0,48.0,50.0,0.76,1.72,2014_Nov_21_1420,270.40861376,265.073763027,1.751,MetaDots
4,15,Monolingual,1,15,1.0,right,right,4.290228916000017,1.0,51.0,50.0,0.5,1.032,2014_Nov_21_1420,276.418842676,270.40861376,1.72,MetaDots
4,16,Monolingual,1,16,1.0,left,left,3.928564336999994,1.0,49.0,50.0,0.56,0.924,2014_Nov_21_1420,281.379407013,276.418842676,1.032,MetaDots
4,17,Monolingual,1,17,1.0,right,right,2.223286720000011,1.0,51.0,50.0,0.7,1.065,2014_Nov_21_1420,284.526693733,281.379407013,0.924,MetaDots
4,18,Monolingual,1,18,1.0,right,right,3.287319082000008,1.0,51.0,50.0,0.42,1.172,2014_Nov_21_1420,288.879012815,284.526693733,1.065,MetaDots
4,19,Monolingual,1,19,0.0,left,right,2.1038296640000143,1.0,50.0,51.0,0.5,0.628,2014_Nov_21_1420,292.154842479,288.879012815,1.172,MetaDots
4,20,Monolingual,1,20,0.0,left,right,4.181192209999992,2.0,50.0,52.0,0.24,1.077,2014_Nov_21_1420,296.964034689,292.154842479,0.628,MetaDots
4,21,Monolingual,1,21,0.0,left,right,4.164461824999988,3.0,50.0,53.0,0.38,1.921,2014_Nov_21_1420,302.205496514,296.964034689,1.077,MetaDots
4,22,Monolingual,1,22,1.0,right,right,2.8058773689999645,4.0,50.0,46.0,0.3,1.237,2014_Nov_21_1420,306.93237388299997,302.205496514,1.921,MetaDots
4,23,Monolingual,1,23,1.0,right,right,1.7227266660000513,4.0,50.0,46.0,0.5,0.89,2014_Nov_21_1420,309.892100549,306.93237388299997,1.237,MetaDots
4,24,Monolingual,1,24,1.0,right,right,2.463918313000008,3.0,50.0,47.0,0.62,2.324,2014_Nov_21_1420,313.246018862,309.892100549,0.89,MetaDots
4,25,Monolingual,1,25,1.0,right,right,3.68221610099995,3.0,50.0,47.0,0.6,1.141,2014_Nov_21_1420,319.252234963,313.246018862,2.324,MetaDots
4,26,Monolingual,2,1,0.0,right,left,4.3523347063740285,2.0,50.0,48.0,0.5,1.091,2014_Nov_21_1420,325.523056198,319.252234963,1.141,MetaDots
4,27,Monolingual,2,2,0.0,left,right,3.8902210289999823,3.0,50.0,53.0,0.6,1.021,2014_Nov_21_1420,330.504277227,325.523056198,1.091,MetaDots
4,28,Monolingual,2,3,1.0,left,left,1.938172324000008,4.0,50.0,54.0,0.66,1.234,2014_Nov_21_1420,333.463449551,330.504277227,1.021,MetaDots
4,29,Monolingual,2,4,1.0,right,right,1.7184568759999852,4.0,54.0,50.0,0.68,1.094,2014_Nov_21_1420,336.415906427,333.463449551,1.234,MetaDots
4,30,Monolingual,2,5,1.0,left,left,4.381373169000022,3.0,47.0,50.0,0.2,1.3430000000000002,2014_Nov_21_1420,341.891279596,336.415906427,1.094,MetaDots
4,31,Monolingual,2,6,1.0,left,left,2.947295772000036,3.0,50.0,53.0,0.26,1.281,2014_Nov_21_1420,346.18157536800004,341.891279596,1.3430000000000002,MetaDots
4,32,Monolingual,2,7,1.0,right,right,3.726423772999971,2.0,52.0,50.0,0.4,1.39,2014_Nov_21_1420,351.188999141,346.18157536800004,1.281,MetaDots
4,33,Monolingual,2,8,0.0,right,left,4.128354415999966,2.0,50.0,48.0,0.5,0.909,2014_Nov_21_1420,356.707353557,351.188999141,1.39,MetaDots
4,34,Monolingual,2,9,1.0,right,right,4.040289651000072,3.0,53.0,50.0,0.62,0.909,2014_Nov_21_1420,361.65664320800005,356.707353557,0.909,MetaDots
4,35,Monolingual,2,10,0.0,left,right,4.391016542999913,3.0,47.0,50.0,0.5,0.9690000000000001,2014_Nov_21_1420,366.95665975099996,361.65664320800005,0.909,MetaDots
4,36,Monolingual,2,11,1.0,left,left,2.8994495330000456,4.0,46.0,50.0,0.32,2.557,2014_Nov_21_1420,370.825109284,366.95665975099996,0.9690000000000001,MetaDots
4,37,Monolingual,2,12,1.0,left,left,4.264407516999954,4.0,46.0,50.0,0.5,1.09,2014_Nov_21_1420,377.64651680099996,370.825109284,2.557,MetaDots
4,38,Monolingual,2,13,1.0,right,right,5.337123479000045,3.0,50.0,47.0,0.58,2.2640000000000002,2014_Nov_21_1420,384.07364028,377.64651680099996,1.09,MetaDots
4,39,Monolingual,2,14,0.0,left,right,3.940687879000005,3.0,47.0,50.0,0.24,2.5140000000000002,2014_Nov_21_1420,390.278328159,384.07364028,2.2640000000000002,MetaDots
4,40,Monolingual,2,15,1.0,right,right,4.817668110000009,4.0,54.0,50.0,0.34,1.798,2014_Nov_21_1420,397.609996269,390.278328159,2.5140000000000002,MetaDots
4,41,Monolingual,2,16,1.0,right,right,3.931609040000014,4.0,54.0,50.0,0.72,1.109,2014_Nov_21_1420,403.33960530900004,397.609996269,1.798,MetaDots
4,42,Monolingual,2,17,0.0,left,right,2.7865233859999794,3.0,50.0,53.0,0.64,2.654,2014_Nov_21_1420,407.235128695,403.33960530900004,1.109,MetaDots
4,43,Monolingual,2,18,0.0,left,right,6.004146089000013,4.0,50.0,54.0,0.36,0.987,2014_Nov_21_1420,415.893274784,407.235128695,2.654,MetaDots
4,44,Monolingual,2,19,1.0,right,right,1.8366750369999298,5.0,55.0,50.0,0.76,2.358,2014_Nov_21_1420,418.71694982099996,415.893274784,0.987,MetaDots
4,45,Monolingual,2,20,0.0,left,right,3.3984022020000606,5.0,50.0,55.0,0.58,1.7369999999999999,2014_Nov_21_1420,424.473352023,418.71694982099996,2.358,MetaDots
4,46,Monolingual,2,21,1.0,left,left,3.3796993989999695,6.0,44.0,50.0,0.3,1.891,2014_Nov_21_1420,429.590051422,424.473352023,1.7369999999999999,MetaDots
4,47,Monolingual,2,22,1.0,right,right,3.5377266690000138,6.0,56.0,50.0,0.76,2.495,2014_Nov_21_1420,435.018778091,429.590051422,1.891,MetaDots
4,48,Monolingual,2,23,0.0,left,right,4.560722298000035,5.0,45.0,50.0,0.5,1.765,2014_Nov_21_1420,442.07450038900004,435.018778091,2.495,MetaDots
4,49,Monolingual,2,24,1.0,right,right,3.643765542999959,6.0,50.0,44.0,0.72,1.124,2014_Nov_21_1420,447.483265932,442.07450038900004,1.765,MetaDots
4,50,Monolingual,2,25,1.0,left,left,4.6477468970000135,6.0,44.0,50.0,0.7,1.156,2014_Nov_21_1420,453.255012829,447.483265932,1.124,MetaDots
4,51,Monolingual,3,1,1.0,right,right,5.826760865930026,5.0,50.0,45.0,0.5,1.44,2014_Nov_21_1420,462.66645504900004,453.255012829,1.156,MetaDots
4,52,Monolingual,3,2,1.0,left,left,4.826465255999947,5.0,45.0,50.0,0.72,1.605,2014_Nov_21_1420,468.932920305,462.66645504900004,1.44,MetaDots
4,53,Monolingual,3,3,1.0,left,left,4.264629489000033,4.0,50.0,54.0,0.72,0.857,2014_Nov_21_1420,474.802549794,468.932920305,1.605,MetaDots
4,54,Monolingual,3,4,1.0,left,left,3.6357935629999636,4.0,46.0,50.0,0.5,0.515,2014_Nov_21_1420,479.295343357,474.802549794,0.857,MetaDots
4,55,Monolingual,3,5,0.0,right,left,4.894025996000026,3.0,50.0,47.0,0.34,1.41,2014_Nov_21_1420,484.704369353,479.295343357,0.515,MetaDots
4,56,Monolingual,3,6,1.0,right,right,2.3185245550000353,4.0,54.0,50.0,0.74,1.3130000000000002,2014_Nov_21_1420,488.43289390800004,484.704369353,1.41,MetaDots
4,57,Monolingual,3,7,1.0,right,right,3.7614546339999486,4.0,54.0,50.0,0.36,1.216,2014_Nov_21_1420,493.507348542,488.43289390800004,1.3130000000000002,MetaDots
4,58,Monolingual,3,8,1.0,right,right,5.0713788800000055,3.0,53.0,50.0,0.3,1.173,2014_Nov_21_1420,499.794727422,493.507348542,1.216,MetaDots
4,59,Monolingual,3,9,1.0,left,left,1.9262816449999622,3.0,50.0,53.0,0.64,2.136,2014_Nov_21_1420,502.89400906699996,499.794727422,1.173,MetaDots
4,60,Monolingual,3,10,1.0,left,left,2.844573417000073,2.0,50.0,52.0,0.5,1.651,2014_Nov_21_1420,507.87458248400003,502.89400906699996,2.136,MetaDots
4,61,Monolingual,3,11,1.0,left,left,4.526520756999911,2.0,48.0,50.0,0.7,0.706,2014_Nov_21_1420,514.0521032409999,507.87458248400003,1.651,MetaDots
4,62,Monolingual,3,12,0.0,right,left,1.8053213210000822,1.0,50.0,49.0,0.82,1.344,2014_Nov_21_1420,516.563424562,514.0521032409999,0.706,MetaDots
4,63,Monolingual,3,13,1.0,left,left,4.205671178999915,2.0,50.0,52.0,0.62,0.688,2014_Nov_21_1420,522.1130957409999,516.563424562,1.344,MetaDots
4,64,Monolingual,3,14,0.0,left,right,4.386582660000033,2.0,48.0,50.0,0.16,2.045,2014_Nov_21_1420,527.187678401,522.1130957409999,0.688,MetaDots
4,65,Monolingual,3,15,1.0,left,left,4.174708769000022,3.0,50.0,53.0,0.6,1.8769999999999998,2014_Nov_21_1420,533.40738717,527.187678401,2.045,MetaDots
4,66,Monolingual,3,16,1.0,right,right,2.8694262580000425,3.0,53.0,50.0,0.62,1.739,2014_Nov_21_1420,538.153813428,533.40738717,1.8769999999999998,MetaDots
4,67,Monolingual,3,17,0.0,right,left,5.136523104999957,2.0,50.0,48.0,0.22,1.3459999999999999,2014_Nov_21_1420,545.029336533,538.153813428,1.739,MetaDots
4,68,Monolingual,3,18,1.0,right,right,5.523097585000077,3.0,50.0,47.0,0.34,0.784,2014_Nov_21_1420,551.8984341180001,545.029336533,1.3459999999999999,MetaDots
4,69,Monolingual,3,19,0.0,right,left,4.436744858999865,3.0,53.0,50.0,0.62,0.9229999999999999,2014_Nov_21_1420,557.1191789769999,551.8984341180001,0.784,MetaDots
4,70,Monolingual,3,20,0.0,right,left,3.7773684170000497,4.0,54.0,50.0,0.72,1.281,2014_Nov_21_1420,561.819547394,557.1191789769999,0.9229999999999999,MetaDots
4,71,Monolingual,3,21,1.0,right,right,1.6158414859999712,5.0,55.0,50.0,0.74,1.062,2014_Nov_21_1420,564.71638888,561.819547394,1.281,MetaDots
4,72,Monolingual,3,22,1.0,left,left,3.992244495000034,5.0,45.0,50.0,0.6,0.953,2014_Nov_21_1420,569.770633375,564.71638888,1.062,MetaDots
4,73,Monolingual,3,23,1.0,right,right,5.567711686000027,4.0,50.0,46.0,0.5,0.78,2014_Nov_21_1420,576.291345061,569.770633375,0.953,MetaDots
4,74,Monolingual,3,24,1.0,right,right,3.7129493070000033,4.0,54.0,50.0,0.38,1.931,2014_Nov_21_1420,580.784294368,576.291345061,0.78,MetaDots
4,75,Monolingual,3,25,1.0,right,right,1.6568006200000527,3.0,50.0,47.0,0.76,2.0140000000000002,2014_Nov_21_1420,584.3720949880001,580.784294368,1.931,MetaDots
